user_id,task,trial_index,subset_index,left_term,left_construct_id,left_canonical,left_is_synonym,right_term,right_construct_id,right_canonical,right_is_synonym,chosen_term,chosen_construct_id,chosen_canonical,chosen_is_synonym,unchosen_term,unchosen_construct_id,unchosen_canonical,unchosen_is_synonym,response_time,correct_word,chosen_word,passed,grade_levels,special_needs,school_type,experience,class_size,country
66e7853b4e311a12f93b5411,demographics,,,,,,,,,,,,,,,,,,,,,,,"primary","yes","public",">10","15-25","United States"
66e7853b4e311a12f93b5411,forced_choice,0,100,"Drive or ambition",54,"Motivation",true,"Reading",52,"Reading",false,"Drive or ambition",54,"Motivation",true,"Reading",52,"Reading",false,6449,,,,,,,,,
66e7853b4e311a12f93b5411,forced_choice,1,100,"Confidence in groups",13,"Comfort in social situations",true,"Interpersonal understanding",16,"Social awareness",true,"Interpersonal understanding",16,"Social awareness",true,"Confidence in groups",13,"Comfort in social situations",true,5608,,,,,,,,,
66e7853b4e311a12f93b5411,forced_choice,2,100,"Connections to friends",9,"Relationships with peers",true,"Navigating difficulties",25,"Coping skills",true,"Navigating difficulties",25,"Coping skills",true,"Connections to friends",9,"Relationships with peers",true,2748,,,,,,,,,
66e7853b4e311a12f93b5411,forced_choice,3,100,"Ingenuity",50,"Creativity and imagination",true,"Mental health",84,"Emotional well-being",true,"Mental health",84,"Emotional well-being",true,"Ingenuity",50,"Creativity and imagination",true,2805,,,,,,,,,
66e7853b4e311a12f93b5411,forced_choice,4,100,"Self-monitoring",77,"Self-monitoring",false,"Navigating difficulties",25,"Coping skills",true,"Self-monitoring",77,"Self-monitoring",false,"Navigating difficulties",25,"Coping skills",true,6860,,,,,,,,,
66e7853b4e311a12f93b5411,forced_choice,5,100,"Mental health",84,"Emotional well-being",true,"Connections to friends",9,"Relationships with peers",true,"Connections to friends",9,"Relationships with peers",true,"Mental health",84,"Emotional well-being",true,32109,,,,,,,,,
66e7853b4e311a12f93b5411,forced_choice,6,100,"Launching activities",46,"Task initiation",true,"Self-monitoring",77,"Self-monitoring",false,"Self-monitoring",77,"Self-monitoring",false,"Launching activities",46,"Task initiation",true,10320,,,,,,,,,
66e7853b4e311a12f93b5411,forced_choice,7,100,"Exertion",74,"Effort",true,"Interpersonal understanding",16,"Social awareness",true,"Interpersonal understanding",16,"Social awareness",true,"Exertion",74,"Effort",true,5552,,,,,,,,,
66e7853b4e311a12f93b5411,forced_choice,8,100,"Classroom contribution",89,"Class participation",true,"Self-monitoring",77,"Self-monitoring",false,"Self-monitoring",77,"Self-monitoring",false,"Classroom contribution",89,"Class participation",true,24929,,,,,,,,,
66e7853b4e311a12f93b5411,forced_choice,9,100,"Personal security",21,"Sense of safety",true,"Belief in oneself",80,"Self-confidence",true,"Belief in oneself",80,"Self-confidence",true,"Personal security",21,"Sense of safety",true,3016,,,,,,,,,
66e7853b4e311a12f93b5411,forced_choice,10,100,"Ingenuity",50,"Creativity and imagination",true,"Belief in oneself",80,"Self-confidence",true,"Belief in oneself",80,"Self-confidence",true,"Ingenuity",50,"Creativity and imagination",true,6768,,,,,,,,,
66e7853b4e311a12f93b5411,forced_choice,11,100,"Personal security",21,"Sense of safety",true,"Resourcefulness",27,"Resourcefulness",false,"Resourcefulness",27,"Resourcefulness",false,"Personal security",21,"Sense of safety",true,1458,,,,,,,,,
66e7853b4e311a12f93b5411,forced_choice,12,100,"Schedule planning",44,"Time management",true,"Interpersonal understanding",16,"Social awareness",true,"Interpersonal understanding",16,"Social awareness",true,"Schedule planning",44,"Time management",true,8722,,,,,,,,,
66e7853b4e311a12f93b5411,forced_choice,13,100,"Resourcefulness",27,"Resourcefulness",false,"Mental health",84,"Emotional well-being",true,"Mental health",84,"Emotional well-being",true,"Resourcefulness",27,"Resourcefulness",false,5017,,,,,,,,,
66e7853b4e311a12f93b5411,forced_choice,14,100,"Teamwork",12,"Social cooperation",true,"Attention",40,"Attention",false,"Attention",40,"Attention",false,"Teamwork",12,"Social cooperation",true,8163,,,,,,,,,
66e7853b4e311a12f93b5411,forced_choice,15,100,"Relationships with parents",10,"Relationships with parents",false,"Belief in oneself",80,"Self-confidence",true,"Relationships with parents",10,"Relationships with parents",false,"Belief in oneself",80,"Self-confidence",true,3828,,,,,,,,,
66e7853b4e311a12f93b5411,forced_choice,16,100,"Confidence in groups",13,"Comfort in social situations",true,"Belief in oneself",80,"Self-confidence",true,"Belief in oneself",80,"Self-confidence",true,"Confidence in groups",13,"Comfort in social situations",true,1983,,,,,,,,,
66e7853b4e311a12f93b5411,forced_choice,17,100,"Self-monitoring",77,"Self-monitoring",false,"Belief in oneself",80,"Self-confidence",true,"Belief in oneself",80,"Self-confidence",true,"Self-monitoring",77,"Self-monitoring",false,1630,,,,,,,,,
66e7853b4e311a12f93b5411,forced_choice,18,100,"Imaginative activity",19,"Play",true,"Belief in oneself",80,"Self-confidence",true,"Belief in oneself",80,"Self-confidence",true,"Imaginative activity",19,"Play",true,3644,,,,,,,,,
66e7853b4e311a12f93b5411,forced_choice,19,100,"Schedule planning",44,"Time management",true,"Reading",52,"Reading",false,"Reading",52,"Reading",false,"Schedule planning",44,"Time management",true,1892,,,,,,,,,
66e7853b4e311a12f93b5411,forced_choice,20,100,"Resourcefulness",27,"Resourcefulness",false,"Exertion",74,"Effort",true,"Resourcefulness",27,"Resourcefulness",false,"Exertion",74,"Effort",true,3511,,,,,,,,,
66e7853b4e311a12f93b5411,forced_choice,21,100,"Connections to friends",9,"Relationships with peers",true,"Drive or ambition",54,"Motivation",true,"Drive or ambition",54,"Motivation",true,"Connections to friends",9,"Relationships with peers",true,2409,,,,,,,,,
66e7853b4e311a12f93b5411,forced_choice,22,100,"Ingenuity",50,"Creativity and imagination",true,"Sleep and fatigue",85,"Sleep and fatigue",false,"Sleep and fatigue",85,"Sleep and fatigue",false,"Ingenuity",50,"Creativity and imagination",true,3999,,,,,,,,,
66e7853b4e311a12f93b5411,forced_choice,23,100,"Relationships with parents",10,"Relationships with parents",false,"Sleep and fatigue",85,"Sleep and fatigue",false,"Relationships with parents",10,"Relationships with parents",false,"Sleep and fatigue",85,"Sleep and fatigue",false,3645,,,,,,,,,
66e7853b4e311a12f93b5411,forced_choice,24,100,"Schedule planning",44,"Time management",true,"Confidence in groups",13,"Comfort in social situations",true,"Confidence in groups",13,"Comfort in social situations",true,"Schedule planning",44,"Time management",true,3410,,,,,,,,,
66e7853b4e311a12f93b5411,forced_choice,25,100,"Ingenuity",50,"Creativity and imagination",true,"Resolving disputes",24,"Managing conflict",true,"Ingenuity",50,"Creativity and imagination",true,"Resolving disputes",24,"Managing conflict",true,7412,,,,,,,,,
66e7853b4e311a12f93b5411,forced_choice,26,100,"Launching activities",46,"Task initiation",true,"Connections to friends",9,"Relationships with peers",true,"Connections to friends",9,"Relationships with peers",true,"Launching activities",46,"Task initiation",true,2950,,,,,,,,,
66e7853b4e311a12f93b5411,forced_choice,27,100,"Schedule planning",44,"Time management",true,"Exertion",74,"Effort",true,"Schedule planning",44,"Time management",true,"Exertion",74,"Effort",true,17268,,,,,,,,,
66e7853b4e311a12f93b5411,forced_choice,28,100,"Reading",52,"Reading",false,"Looking inward",78,"Self-reflection",true,"Reading",52,"Reading",false,"Looking inward",78,"Self-reflection",true,1222,,,,,,,,,
66e7853b4e311a12f93b5411,forced_choice,29,100,"Attention",40,"Attention",false,"Connections to friends",9,"Relationships with peers",true,"Connections to friends",9,"Relationships with peers",true,"Attention",40,"Attention",false,1111,,,,,,,,,
66e7853b4e311a12f93b5411,forced_choice,30,100,"Exertion",74,"Effort",true,"Reading",52,"Reading",false,"Reading",52,"Reading",false,"Exertion",74,"Effort",true,1723,,,,,,,,,
66e7853b4e311a12f93b5411,forced_choice,31,100,"Schedule planning",44,"Time management",true,"Navigating difficulties",25,"Coping skills",true,"Navigating difficulties",25,"Coping skills",true,"Schedule planning",44,"Time management",true,2926,,,,,,,,,
66e7853b4e311a12f93b5411,forced_choice,32,100,"Planning",42,"Planning",false,"Self-monitoring",77,"Self-monitoring",false,"Self-monitoring",77,"Self-monitoring",false,"Planning",42,"Planning",false,5051,,,,,,,,,
66e7853b4e311a12f93b5411,forced_choice,33,100,"Connections to friends",9,"Relationships with peers",true,"Exertion",74,"Effort",true,"Connections to friends",9,"Relationships with peers",true,"Exertion",74,"Effort",true,3696,,,,,,,,,
66e7853b4e311a12f93b5411,forced_choice,34,100,"Connections to friends",9,"Relationships with peers",true,"Resourcefulness",27,"Resourcefulness",false,"Resourcefulness",27,"Resourcefulness",false,"Connections to friends",9,"Relationships with peers",true,5310,,,,,,,,,
66e7853b4e311a12f93b5411,forced_choice,35,100,"Relationships with parents",10,"Relationships with parents",false,"Mental health",84,"Emotional well-being",true,"Mental health",84,"Emotional well-being",true,"Relationships with parents",10,"Relationships with parents",false,1108,,,,,,,,,
66e7853b4e311a12f93b5411,forced_choice,36,100,"Schedule planning",44,"Time management",true,"Launching activities",46,"Task initiation",true,"Schedule planning",44,"Time management",true,"Launching activities",46,"Task initiation",true,5400,,,,,,,,,
66e7853b4e311a12f93b5411,forced_choice,37,100,"Personal security",21,"Sense of safety",true,"Mental health",84,"Emotional well-being",true,"Mental health",84,"Emotional well-being",true,"Personal security",21,"Sense of safety",true,4990,,,,,,,,,
66e7853b4e311a12f93b5411,forced_choice,38,100,"Teamwork",12,"Social cooperation",true,"Confidence in groups",13,"Comfort in social situations",true,"Confidence in groups",13,"Comfort in social situations",true,"Teamwork",12,"Social cooperation",true,7169,,,,,,,,,
66e7853b4e311a12f93b5411,forced_choice,39,100,"Interpersonal understanding",16,"Social awareness",true,"Resolving disputes",24,"Managing conflict",true,"Interpersonal understanding",16,"Social awareness",true,"Resolving disputes",24,"Managing conflict",true,10506,,,,,,,,,
66e7853b4e311a12f93b5411,forced_choice,40,100,"Imaginative activity",19,"Play",true,"Confidence in groups",13,"Comfort in social situations",true,"Confidence in groups",13,"Comfort in social situations",true,"Imaginative activity",19,"Play",true,2342,,,,,,,,,
66e7853b4e311a12f93b5411,forced_choice,41,100,"Confidence in groups",13,"Comfort in social situations",true,"Exertion",74,"Effort",true,"Confidence in groups",13,"Comfort in social situations",true,"Exertion",74,"Effort",true,3293,,,,,,,,,
66e7853b4e311a12f93b5411,forced_choice,42,100,"Classroom contribution",89,"Class participation",true,"Exertion",74,"Effort",true,"Classroom contribution",89,"Class participation",true,"Exertion",74,"Effort",true,13228,,,,,,,,,
66e7853b4e311a12f93b5411,forced_choice,43,100,"Looking inward",78,"Self-reflection",true,"Ingenuity",50,"Creativity and imagination",true,"Ingenuity",50,"Creativity and imagination",true,"Looking inward",78,"Self-reflection",true,3956,,,,,,,,,
66e7853b4e311a12f93b5411,forced_choice,44,100,"Assertiveness",70,"Assertiveness",false,"Ingenuity",50,"Creativity and imagination",true,"Assertiveness",70,"Assertiveness",false,"Ingenuity",50,"Creativity and imagination",true,1949,,,,,,,,,
66e7853b4e311a12f93b5411,forced_choice,45,100,"Looking inward",78,"Self-reflection",true,"Planning",42,"Planning",false,"Planning",42,"Planning",false,"Looking inward",78,"Self-reflection",true,2309,,,,,,,,,
66e7853b4e311a12f93b5411,forced_choice,46,100,"Confidence in groups",13,"Comfort in social situations",true,"Reading",52,"Reading",false,"Reading",52,"Reading",false,"Confidence in groups",13,"Comfort in social situations",true,1117,,,,,,,,,
66e7853b4e311a12f93b5411,forced_choice,47,100,"Teamwork",12,"Social cooperation",true,"Self-monitoring",77,"Self-monitoring",false,"Self-monitoring",77,"Self-monitoring",false,"Teamwork",12,"Social cooperation",true,2415,,,,,,,,,
66e7853b4e311a12f93b5411,forced_choice,48,100,"Drive or ambition",54,"Motivation",true,"Attention",40,"Attention",false,"Drive or ambition",54,"Motivation",true,"Attention",40,"Attention",false,2310,,,,,,,,,
66e7853b4e311a12f93b5411,forced_choice,49,100,"Connections to friends",9,"Relationships with peers",true,"Reading",52,"Reading",false,"Reading",52,"Reading",false,"Connections to friends",9,"Relationships with peers",true,2670,,,,,,,,,
66e7853b4e311a12f93b5411,forced_choice,50,100,"Launching activities",46,"Task initiation",true,"Drive or ambition",54,"Motivation",true,"Drive or ambition",54,"Motivation",true,"Launching activities",46,"Task initiation",true,3598,,,,,,,,,
66e7853b4e311a12f93b5411,forced_choice,51,100,"Launching activities",46,"Task initiation",true,"Confidence in groups",13,"Comfort in social situations",true,"Confidence in groups",13,"Comfort in social situations",true,"Launching activities",46,"Task initiation",true,1541,,,,,,,,,
66e7853b4e311a12f93b5411,forced_choice,52,100,"Ingenuity",50,"Creativity and imagination",true,"Resourcefulness",27,"Resourcefulness",false,"Resourcefulness",27,"Resourcefulness",false,"Ingenuity",50,"Creativity and imagination",true,1709,,,,,,,,,
66e7853b4e311a12f93b5411,forced_choice,53,100,"Exertion",74,"Effort",true,"Attention",40,"Attention",false,"Attention",40,"Attention",false,"Exertion",74,"Effort",true,5169,,,,,,,,,
66e7853b4e311a12f93b5411,forced_choice,54,100,"Imaginative activity",19,"Play",true,"Mental health",84,"Emotional well-being",true,"Mental health",84,"Emotional well-being",true,"Imaginative activity",19,"Play",true,1418,,,,,,,,,
66e7853b4e311a12f93b5411,attention_check,55,,,,,,,,,,,,,,,,,,6396,"Managing emotions","Managing emotions",true,,,,,,
66e7853b4e311a12f93b5411,forced_choice,55,100,"Mental health",84,"Emotional well-being",true,"Navigating difficulties",25,"Coping skills",true,"Mental health",84,"Emotional well-being",true,"Navigating difficulties",25,"Coping skills",true,30174,,,,,,,,,
66e7853b4e311a12f93b5411,forced_choice,56,100,"Reasoning ability",35,"Reasoning ability",false,"Self-monitoring",77,"Self-monitoring",false,"Reasoning ability",35,"Reasoning ability",false,"Self-monitoring",77,"Self-monitoring",false,4784,,,,,,,,,
66e7853b4e311a12f93b5411,forced_choice,57,100,"Looking inward",78,"Self-reflection",true,"Classroom contribution",89,"Class participation",true,"Classroom contribution",89,"Class participation",true,"Looking inward",78,"Self-reflection",true,2794,,,,,,,,,
66e7853b4e311a12f93b5411,forced_choice,58,100,"Teamwork",12,"Social cooperation",true,"Relationships with parents",10,"Relationships with parents",false,"Relationships with parents",10,"Relationships with parents",false,"Teamwork",12,"Social cooperation",true,1115,,,,,,,,,
66e7853b4e311a12f93b5411,forced_choice,59,100,"Self-monitoring",77,"Self-monitoring",false,"Looking inward",78,"Self-reflection",true,"Self-monitoring",77,"Self-monitoring",false,"Looking inward",78,"Self-reflection",true,1868,,,,,,,,,
66e7853b4e311a12f93b5411,forced_choice,60,100,"Launching activities",46,"Task initiation",true,"Belief in oneself",80,"Self-confidence",true,"Belief in oneself",80,"Self-confidence",true,"Launching activities",46,"Task initiation",true,2152,,,,,,,,,
66e7853b4e311a12f93b5411,forced_choice,61,100,"Resolving disputes",24,"Managing conflict",true,"Belief in oneself",80,"Self-confidence",true,"Belief in oneself",80,"Self-confidence",true,"Resolving disputes",24,"Managing conflict",true,1506,,,,,,,,,
66e7853b4e311a12f93b5411,forced_choice,62,100,"Reasoning ability",35,"Reasoning ability",false,"Looking inward",78,"Self-reflection",true,"Reasoning ability",35,"Reasoning ability",false,"Looking inward",78,"Self-reflection",true,8299,,,,,,,,,
66e7853b4e311a12f93b5411,forced_choice,63,100,"Drive or ambition",54,"Motivation",true,"Confidence in groups",13,"Comfort in social situations",true,"Drive or ambition",54,"Motivation",true,"Confidence in groups",13,"Comfort in social situations",true,5691,,,,,,,,,
66e7853b4e311a12f93b5411,forced_choice,64,100,"Imaginative activity",19,"Play",true,"Looking inward",78,"Self-reflection",true,"Imaginative activity",19,"Play",true,"Looking inward",78,"Self-reflection",true,2601,,,,,,,,,
66e7853b4e311a12f93b5411,forced_choice,65,100,"Looking inward",78,"Self-reflection",true,"Teamwork",12,"Social cooperation",true,"Teamwork",12,"Social cooperation",true,"Looking inward",78,"Self-reflection",true,2787,,,,,,,,,
66e7853b4e311a12f93b5411,forced_choice,66,100,"Reading",52,"Reading",false,"Attention",40,"Attention",false,"Reading",52,"Reading",false,"Attention",40,"Attention",false,1851,,,,,,,,,
66e7853b4e311a12f93b5411,forced_choice,67,100,"Interpersonal understanding",16,"Social awareness",true,"Relationships with parents",10,"Relationships with parents",false,"Relationships with parents",10,"Relationships with parents",false,"Interpersonal understanding",16,"Social awareness",true,4835,,,,,,,,,
66e7853b4e311a12f93b5411,forced_choice,68,100,"Classroom contribution",89,"Class participation",true,"Navigating difficulties",25,"Coping skills",true,"Classroom contribution",89,"Class participation",true,"Navigating difficulties",25,"Coping skills",true,2691,,,,,,,,,
66e7853b4e311a12f93b5411,forced_choice,69,100,"Assertiveness",70,"Assertiveness",false,"Relationships with parents",10,"Relationships with parents",false,"Relationships with parents",10,"Relationships with parents",false,"Assertiveness",70,"Assertiveness",false,3085,,,,,,,,,
66e7853b4e311a12f93b5411,forced_choice,70,100,"Self-monitoring",77,"Self-monitoring",false,"Resourcefulness",27,"Resourcefulness",false,"Self-monitoring",77,"Self-monitoring",false,"Resourcefulness",27,"Resourcefulness",false,1565,,,,,,,,,
66e7853b4e311a12f93b5411,forced_choice,71,100,"Schedule planning",44,"Time management",true,"Relationships with parents",10,"Relationships with parents",false,"Relationships with parents",10,"Relationships with parents",false,"Schedule planning",44,"Time management",true,1818,,,,,,,,,
66e7853b4e311a12f93b5411,forced_choice,72,100,"Exertion",74,"Effort",true,"Drive or ambition",54,"Motivation",true,"Drive or ambition",54,"Motivation",true,"Exertion",74,"Effort",true,1666,,,,,,,,,
66e7853b4e311a12f93b5411,forced_choice,73,100,"Self-monitoring",77,"Self-monitoring",false,"Sleep and fatigue",85,"Sleep and fatigue",false,"Sleep and fatigue",85,"Sleep and fatigue",false,"Self-monitoring",77,"Self-monitoring",false,1474,,,,,,,,,
66e7853b4e311a12f93b5411,forced_choice,74,100,"Planning",42,"Planning",false,"Belief in oneself",80,"Self-confidence",true,"Belief in oneself",80,"Self-confidence",true,"Planning",42,"Planning",false,1116,,,,,,,,,
66e7853b4e311a12f93b5411,forced_choice,75,100,"Teamwork",12,"Social cooperation",true,"Belief in oneself",80,"Self-confidence",true,"Belief in oneself",80,"Self-confidence",true,"Teamwork",12,"Social cooperation",true,966,,,,,,,,,
66e7853b4e311a12f93b5411,forced_choice,76,100,"Reasoning ability",35,"Reasoning ability",false,"Assertiveness",70,"Assertiveness",false,"Assertiveness",70,"Assertiveness",false,"Reasoning ability",35,"Reasoning ability",false,2810,,,,,,,,,
66e7853b4e311a12f93b5411,forced_choice,77,100,"Sleep and fatigue",85,"Sleep and fatigue",false,"Teamwork",12,"Social cooperation",true,"Sleep and fatigue",85,"Sleep and fatigue",false,"Teamwork",12,"Social cooperation",true,1751,,,,,,,,,
66e7853b4e311a12f93b5411,forced_choice,78,100,"Resourcefulness",27,"Resourcefulness",false,"Navigating difficulties",25,"Coping skills",true,"Resourcefulness",27,"Resourcefulness",false,"Navigating difficulties",25,"Coping skills",true,2776,,,,,,,,,
66e7853b4e311a12f93b5411,forced_choice,79,100,"Connections to friends",9,"Relationships with peers",true,"Resolving disputes",24,"Managing conflict",true,"Connections to friends",9,"Relationships with peers",true,"Resolving disputes",24,"Managing conflict",true,3193,,,,,,,,,
66e7853b4e311a12f93b5411,forced_choice,80,100,"Mental health",84,"Emotional well-being",true,"Classroom contribution",89,"Class participation",true,"Mental health",84,"Emotional well-being",true,"Classroom contribution",89,"Class participation",true,1523,,,,,,,,,
66e7853b4e311a12f93b5411,forced_choice,81,100,"Planning",42,"Planning",false,"Teamwork",12,"Social cooperation",true,"Teamwork",12,"Social cooperation",true,"Planning",42,"Planning",false,1385,,,,,,,,,
66e7853b4e311a12f93b5411,forced_choice,82,100,"Connections to friends",9,"Relationships with peers",true,"Reasoning ability",35,"Reasoning ability",false,"Connections to friends",9,"Relationships with peers",true,"Reasoning ability",35,"Reasoning ability",false,1491,,,,,,,,,
66e7853b4e311a12f93b5411,forced_choice,83,100,"Personal security",21,"Sense of safety",true,"Confidence in groups",13,"Comfort in social situations",true,"Personal security",21,"Sense of safety",true,"Confidence in groups",13,"Comfort in social situations",true,2858,,,,,,,,,
66e7853b4e311a12f93b5411,forced_choice,84,100,"Resourcefulness",27,"Resourcefulness",false,"Reasoning ability",35,"Reasoning ability",false,"Resourcefulness",27,"Resourcefulness",false,"Reasoning ability",35,"Reasoning ability",false,2153,,,,,,,,,
66e7853b4e311a12f93b5411,forced_choice,85,100,"Imaginative activity",19,"Play",true,"Teamwork",12,"Social cooperation",true,"Teamwork",12,"Social cooperation",true,"Imaginative activity",19,"Play",true,2850,,,,,,,,,
66e7853b4e311a12f93b5411,forced_choice,86,100,"Navigating difficulties",25,"Coping skills",true,"Drive or ambition",54,"Motivation",true,"Drive or ambition",54,"Motivation",true,"Navigating difficulties",25,"Coping skills",true,1231,,,,,,,,,
66e7853b4e311a12f93b5411,forced_choice,87,100,"Drive or ambition",54,"Motivation",true,"Imaginative activity",19,"Play",true,"Drive or ambition",54,"Motivation",true,"Imaginative activity",19,"Play",true,1518,,,,,,,,,
66e7853b4e311a12f93b5411,forced_choice,88,100,"Personal security",21,"Sense of safety",true,"Resolving disputes",24,"Managing conflict",true,"Personal security",21,"Sense of safety",true,"Resolving disputes",24,"Managing conflict",true,1442,,,,,,,,,
66e7853b4e311a12f93b5411,forced_choice,89,100,"Schedule planning",44,"Time management",true,"Connections to friends",9,"Relationships with peers",true,"Connections to friends",9,"Relationships with peers",true,"Schedule planning",44,"Time management",true,1384,,,,,,,,,
66e7853b4e311a12f93b5411,forced_choice,90,100,"Teamwork",12,"Social cooperation",true,"Resourcefulness",27,"Resourcefulness",false,"Teamwork",12,"Social cooperation",true,"Resourcefulness",27,"Resourcefulness",false,2076,,,,,,,,,
66e7853b4e311a12f93b5411,forced_choice,91,100,"Schedule planning",44,"Time management",true,"Mental health",84,"Emotional well-being",true,"Mental health",84,"Emotional well-being",true,"Schedule planning",44,"Time management",true,1643,,,,,,,,,
66e7853b4e311a12f93b5411,forced_choice,92,100,"Navigating difficulties",25,"Coping skills",true,"Resolving disputes",24,"Managing conflict",true,"Resolving disputes",24,"Managing conflict",true,"Navigating difficulties",25,"Coping skills",true,4516,,,,,,,,,
66e7853b4e311a12f93b5411,forced_choice,93,100,"Resolving disputes",24,"Managing conflict",true,"Imaginative activity",19,"Play",true,"Imaginative activity",19,"Play",true,"Resolving disputes",24,"Managing conflict",true,4302,,,,,,,,,
66e7853b4e311a12f93b5411,forced_choice,94,100,"Resolving disputes",24,"Managing conflict",true,"Classroom contribution",89,"Class participation",true,"Classroom contribution",89,"Class participation",true,"Resolving disputes",24,"Managing conflict",true,2126,,,,,,,,,
66e7853b4e311a12f93b5411,forced_choice,95,100,"Looking inward",78,"Self-reflection",true,"Attention",40,"Attention",false,"Attention",40,"Attention",false,"Looking inward",78,"Self-reflection",true,2475,,,,,,,,,
66e7853b4e311a12f93b5411,forced_choice,96,100,"Assertiveness",70,"Assertiveness",false,"Imaginative activity",19,"Play",true,"Imaginative activity",19,"Play",true,"Assertiveness",70,"Assertiveness",false,1550,,,,,,,,,
66e7853b4e311a12f93b5411,forced_choice,97,100,"Resolving disputes",24,"Managing conflict",true,"Drive or ambition",54,"Motivation",true,"Drive or ambition",54,"Motivation",true,"Resolving disputes",24,"Managing conflict",true,1500,,,,,,,,,
66e7853b4e311a12f93b5411,forced_choice,98,100,"Relationships with parents",10,"Relationships with parents",false,"Imaginative activity",19,"Play",true,"Relationships with parents",10,"Relationships with parents",false,"Imaginative activity",19,"Play",true,1211,,,,,,,,,
66e7853b4e311a12f93b5411,forced_choice,99,100,"Teamwork",12,"Social cooperation",true,"Assertiveness",70,"Assertiveness",false,"Assertiveness",70,"Assertiveness",false,"Teamwork",12,"Social cooperation",true,1499,,,,,,,,,
66e7853b4e311a12f93b5411,forced_choice,100,100,"Exertion",74,"Effort",true,"Self-monitoring",77,"Self-monitoring",false,"Self-monitoring",77,"Self-monitoring",false,"Exertion",74,"Effort",true,2399,,,,,,,,,
66e7853b4e311a12f93b5411,forced_choice,101,100,"Resourcefulness",27,"Resourcefulness",false,"Belief in oneself",80,"Self-confidence",true,"Belief in oneself",80,"Self-confidence",true,"Resourcefulness",27,"Resourcefulness",false,2283,,,,,,,,,
66e7853b4e311a12f93b5411,forced_choice,102,100,"Mental health",84,"Emotional well-being",true,"Belief in oneself",80,"Self-confidence",true,"Belief in oneself",80,"Self-confidence",true,"Mental health",84,"Emotional well-being",true,2926,,,,,,,,,
66e7853b4e311a12f93b5411,forced_choice,103,100,"Mental health",84,"Emotional well-being",true,"Exertion",74,"Effort",true,"Mental health",84,"Emotional well-being",true,"Exertion",74,"Effort",true,1260,,,,,,,,,
66e7853b4e311a12f93b5411,forced_choice,104,100,"Personal security",21,"Sense of safety",true,"Connections to friends",9,"Relationships with peers",true,"Personal security",21,"Sense of safety",true,"Connections to friends",9,"Relationships with peers",true,1940,,,,,,,,,
66e7853b4e311a12f93b5411,forced_choice,105,100,"Mental health",84,"Emotional well-being",true,"Self-monitoring",77,"Self-monitoring",false,"Mental health",84,"Emotional well-being",true,"Self-monitoring",77,"Self-monitoring",false,1825,,,,,,,,,
66e7853b4e311a12f93b5411,forced_choice,106,100,"Relationships with parents",10,"Relationships with parents",false,"Confidence in groups",13,"Comfort in social situations",true,"Relationships with parents",10,"Relationships with parents",false,"Confidence in groups",13,"Comfort in social situations",true,1508,,,,,,,,,
66e7853b4e311a12f93b5411,forced_choice,107,100,"Assertiveness",70,"Assertiveness",false,"Drive or ambition",54,"Motivation",true,"Drive or ambition",54,"Motivation",true,"Assertiveness",70,"Assertiveness",false,1862,,,,,,,,,
66e7853b4e311a12f93b5411,forced_choice,108,100,"Personal security",21,"Sense of safety",true,"Interpersonal understanding",16,"Social awareness",true,"Interpersonal understanding",16,"Social awareness",true,"Personal security",21,"Sense of safety",true,2024,,,,,,,,,
66e7853b4e311a12f93b5411,forced_choice,109,100,"Schedule planning",44,"Time management",true,"Classroom contribution",89,"Class participation",true,"Schedule planning",44,"Time management",true,"Classroom contribution",89,"Class participation",true,6722,,,,,,,,,
66e7853b4e311a12f93b5411,attention_check,111,,,,,,,,,,,,,,,,,,4451,"Respect for others","Respect for others",true,,,,,,
66e7853b4e311a12f93b5411,forced_choice,110,100,"Resourcefulness",27,"Resourcefulness",false,"Sleep and fatigue",85,"Sleep and fatigue",false,"Sleep and fatigue",85,"Sleep and fatigue",false,"Resourcefulness",27,"Resourcefulness",false,5786,,,,,,,,,
66e7853b4e311a12f93b5411,forced_choice,111,100,"Reading",52,"Reading",false,"Resourcefulness",27,"Resourcefulness",false,"Reading",52,"Reading",false,"Resourcefulness",27,"Resourcefulness",false,1300,,,,,,,,,
66e7853b4e311a12f93b5411,forced_choice,112,100,"Relationships with parents",10,"Relationships with parents",false,"Exertion",74,"Effort",true,"Relationships with parents",10,"Relationships with parents",false,"Exertion",74,"Effort",true,1574,,,,,,,,,
66e7853b4e311a12f93b5411,forced_choice,113,100,"Relationships with parents",10,"Relationships with parents",false,"Attention",40,"Attention",false,"Relationships with parents",10,"Relationships with parents",false,"Attention",40,"Attention",false,1076,,,,,,,,,
66e7853b4e311a12f93b5411,forced_choice,114,100,"Resolving disputes",24,"Managing conflict",true,"Relationships with parents",10,"Relationships with parents",false,"Relationships with parents",10,"Relationships with parents",false,"Resolving disputes",24,"Managing conflict",true,1118,,,,,,,,,
66e7853b4e311a12f93b5411,forced_choice,115,100,"Launching activities",46,"Task initiation",true,"Personal security",21,"Sense of safety",true,"Personal security",21,"Sense of safety",true,"Launching activities",46,"Task initiation",true,4027,,,,,,,,,
66e7853b4e311a12f93b5411,forced_choice,116,100,"Planning",42,"Planning",false,"Confidence in groups",13,"Comfort in social situations",true,"Confidence in groups",13,"Comfort in social situations",true,"Planning",42,"Planning",false,2190,,,,,,,,,
66e7853b4e311a12f93b5411,forced_choice,117,100,"Reasoning ability",35,"Reasoning ability",false,"Interpersonal understanding",16,"Social awareness",true,"Reasoning ability",35,"Reasoning ability",false,"Interpersonal understanding",16,"Social awareness",true,6438,,,,,,,,,
66e7853b4e311a12f93b5411,forced_choice,118,100,"Personal security",21,"Sense of safety",true,"Self-monitoring",77,"Self-monitoring",false,"Self-monitoring",77,"Self-monitoring",false,"Personal security",21,"Sense of safety",true,16158,,,,,,,,,
66e7853b4e311a12f93b5411,forced_choice,119,100,"Assertiveness",70,"Assertiveness",false,"Interpersonal understanding",16,"Social awareness",true,"Interpersonal understanding",16,"Social awareness",true,"Assertiveness",70,"Assertiveness",false,1681,,,,,,,,,
66e7853b4e311a12f93b5411,forced_choice,120,100,"Reasoning ability",35,"Reasoning ability",false,"Navigating difficulties",25,"Coping skills",true,"Reasoning ability",35,"Reasoning ability",false,"Navigating difficulties",25,"Coping skills",true,3270,,,,,,,,,
66e7853b4e311a12f93b5411,forced_choice,121,100,"Navigating difficulties",25,"Coping skills",true,"Assertiveness",70,"Assertiveness",false,"Assertiveness",70,"Assertiveness",false,"Navigating difficulties",25,"Coping skills",true,3076,,,,,,,,,
66e7853b4e311a12f93b5411,forced_choice,122,100,"Reading",52,"Reading",false,"Reasoning ability",35,"Reasoning ability",false,"Reading",52,"Reading",false,"Reasoning ability",35,"Reasoning ability",false,1365,,,,,,,,,
66e7853b4e311a12f93b5411,forced_choice,123,100,"Planning",42,"Planning",false,"Resolving disputes",24,"Managing conflict",true,"Resolving disputes",24,"Managing conflict",true,"Planning",42,"Planning",false,1727,,,,,,,,,
66e7853b4e311a12f93b5411,forced_choice,124,100,"Confidence in groups",13,"Comfort in social situations",true,"Self-monitoring",77,"Self-monitoring",false,"Self-monitoring",77,"Self-monitoring",false,"Confidence in groups",13,"Comfort in social situations",true,1199,,,,,,,,,
66e7853b4e311a12f93b5411,forced_choice,125,100,"Reasoning ability",35,"Reasoning ability",false,"Schedule planning",44,"Time management",true,"Reasoning ability",35,"Reasoning ability",false,"Schedule planning",44,"Time management",true,1958,,,,,,,,,
66e7853b4e311a12f93b5411,forced_choice,126,100,"Navigating difficulties",25,"Coping skills",true,"Attention",40,"Attention",false,"Attention",40,"Attention",false,"Navigating difficulties",25,"Coping skills",true,2426,,,,,,,,,
66e7853b4e311a12f93b5411,forced_choice,127,100,"Attention",40,"Attention",false,"Classroom contribution",89,"Class participation",true,"Attention",40,"Attention",false,"Classroom contribution",89,"Class participation",true,30900,,,,,,,,,
66e7853b4e311a12f93b5411,forced_choice,128,100,"Teamwork",12,"Social cooperation",true,"Ingenuity",50,"Creativity and imagination",true,"Teamwork",12,"Social cooperation",true,"Ingenuity",50,"Creativity and imagination",true,2432,,,,,,,,,
66e7853b4e311a12f93b5411,forced_choice,129,100,"Looking inward",78,"Self-reflection",true,"Launching activities",46,"Task initiation",true,"Launching activities",46,"Task initiation",true,"Looking inward",78,"Self-reflection",true,2004,,,,,,,,,
66e7853b4e311a12f93b5411,forced_choice,130,100,"Drive or ambition",54,"Motivation",true,"Planning",42,"Planning",false,"Drive or ambition",54,"Motivation",true,"Planning",42,"Planning",false,2501,,,,,,,,,
66e7853b4e311a12f93b5411,forced_choice,131,100,"Launching activities",46,"Task initiation",true,"Navigating difficulties",25,"Coping skills",true,"Launching activities",46,"Task initiation",true,"Navigating difficulties",25,"Coping skills",true,1705,,,,,,,,,
66e7853b4e311a12f93b5411,forced_choice,132,100,"Looking inward",78,"Self-reflection",true,"Schedule planning",44,"Time management",true,"Looking inward",78,"Self-reflection",true,"Schedule planning",44,"Time management",true,1709,,,,,,,,,
66e7853b4e311a12f93b5411,forced_choice,133,100,"Connections to friends",9,"Relationships with peers",true,"Interpersonal understanding",16,"Social awareness",true,"Connections to friends",9,"Relationships with peers",true,"Interpersonal understanding",16,"Social awareness",true,2751,,,,,,,,,
66e7853b4e311a12f93b5411,forced_choice,134,100,"Assertiveness",70,"Assertiveness",false,"Self-monitoring",77,"Self-monitoring",false,"Self-monitoring",77,"Self-monitoring",false,"Assertiveness",70,"Assertiveness",false,2210,,,,,,,,,
66e7853b4e311a12f93b5411,forced_choice,135,100,"Planning",42,"Planning",false,"Launching activities",46,"Task initiation",true,"Launching activities",46,"Task initiation",true,"Planning",42,"Planning",false,1131,,,,,,,,,
66e7853b4e311a12f93b5411,forced_choice,136,100,"Exertion",74,"Effort",true,"Reasoning ability",35,"Reasoning ability",false,"Reasoning ability",35,"Reasoning ability",false,"Exertion",74,"Effort",true,7946,,,,,,,,,
66e7853b4e311a12f93b5411,forced_choice,137,100,"Imaginative activity",19,"Play",true,"Schedule planning",44,"Time management",true,"Imaginative activity",19,"Play",true,"Schedule planning",44,"Time management",true,1359,,,,,,,,,
66e7853b4e311a12f93b5411,forced_choice,138,100,"Navigating difficulties",25,"Coping skills",true,"Interpersonal understanding",16,"Social awareness",true,"Interpersonal understanding",16,"Social awareness",true,"Navigating difficulties",25,"Coping skills",true,1710,,,,,,,,,
66e7853b4e311a12f93b5411,forced_choice,139,100,"Navigating difficulties",25,"Coping skills",true,"Relationships with parents",10,"Relationships with parents",false,"Relationships with parents",10,"Relationships with parents",false,"Navigating difficulties",25,"Coping skills",true,1073,,,,,,,,,
66e7853b4e311a12f93b5411,forced_choice,140,100,"Attention",40,"Attention",false,"Schedule planning",44,"Time management",true,"Attention",40,"Attention",false,"Schedule planning",44,"Time management",true,1318,,,,,,,,,
66e7853b4e311a12f93b5411,forced_choice,141,100,"Connections to friends",9,"Relationships with peers",true,"Assertiveness",70,"Assertiveness",false,"Connections to friends",9,"Relationships with peers",true,"Assertiveness",70,"Assertiveness",false,6502,,,,,,,,,
66e7853b4e311a12f93b5411,forced_choice,142,100,"Navigating difficulties",25,"Coping skills",true,"Reading",52,"Reading",false,"Reading",52,"Reading",false,"Navigating difficulties",25,"Coping skills",true,1569,,,,,,,,,
66e7853b4e311a12f93b5411,forced_choice,143,100,"Attention",40,"Attention",false,"Assertiveness",70,"Assertiveness",false,"Attention",40,"Attention",false,"Assertiveness",70,"Assertiveness",false,1716,,,,,,,,,
66e7853b4e311a12f93b5411,forced_choice,144,100,"Imaginative activity",19,"Play",true,"Connections to friends",9,"Relationships with peers",true,"Connections to friends",9,"Relationships with peers",true,"Imaginative activity",19,"Play",true,12454,,,,,,,,,
66e7853b4e311a12f93b5411,forced_choice,145,100,"Reasoning ability",35,"Reasoning ability",false,"Resolving disputes",24,"Managing conflict",true,"Reasoning ability",35,"Reasoning ability",false,"Resolving disputes",24,"Managing conflict",true,1578,,,,,,,,,
66e7853b4e311a12f93b5411,forced_choice,146,100,"Interpersonal understanding",16,"Social awareness",true,"Drive or ambition",54,"Motivation",true,"Drive or ambition",54,"Motivation",true,"Interpersonal understanding",16,"Social awareness",true,1741,,,,,,,,,
66e7853b4e311a12f93b5411,forced_choice,147,100,"Classroom contribution",89,"Class participation",true,"Assertiveness",70,"Assertiveness",false,"Assertiveness",70,"Assertiveness",false,"Classroom contribution",89,"Class participation",true,9572,,,,,,,,,
66e7853b4e311a12f93b5411,forced_choice,148,100,"Sleep and fatigue",85,"Sleep and fatigue",false,"Navigating difficulties",25,"Coping skills",true,"Sleep and fatigue",85,"Sleep and fatigue",false,"Navigating difficulties",25,"Coping skills",true,2126,,,,,,,,,
66e7853b4e311a12f93b5411,forced_choice,149,100,"Attention",40,"Attention",false,"Personal security",21,"Sense of safety",true,"Attention",40,"Attention",false,"Personal security",21,"Sense of safety",true,980,,,,,,,,,
66e7853b4e311a12f93b5411,forced_choice,150,100,"Personal security",21,"Sense of safety",true,"Navigating difficulties",25,"Coping skills",true,"Personal security",21,"Sense of safety",true,"Navigating difficulties",25,"Coping skills",true,1818,,,,,,,,,
66e7853b4e311a12f93b5411,forced_choice,151,100,"Exertion",74,"Effort",true,"Ingenuity",50,"Creativity and imagination",true,"Ingenuity",50,"Creativity and imagination",true,"Exertion",74,"Effort",true,2311,,,,,,,,,
66e7853b4e311a12f93b5411,forced_choice,152,100,"Drive or ambition",54,"Motivation",true,"Classroom contribution",89,"Class participation",true,"Drive or ambition",54,"Motivation",true,"Classroom contribution",89,"Class participation",true,2884,,,,,,,,,
66e7853b4e311a12f93b5411,forced_choice,153,100,"Planning",42,"Planning",false,"Interpersonal understanding",16,"Social awareness",true,"Interpersonal understanding",16,"Social awareness",true,"Planning",42,"Planning",false,3116,,,,,,,,,
66e7853b4e311a12f93b5411,forced_choice,154,100,"Planning",42,"Planning",false,"Reasoning ability",35,"Reasoning ability",false,"Planning",42,"Planning",false,"Reasoning ability",35,"Reasoning ability",false,1760,,,,,,,,,
66e7853b4e311a12f93b5411,forced_choice,155,100,"Belief in oneself",80,"Self-confidence",true,"Reading",52,"Reading",false,"Belief in oneself",80,"Self-confidence",true,"Reading",52,"Reading",false,48857,,,,,,,,,
66e7853b4e311a12f93b5411,forced_choice,156,100,"Assertiveness",70,"Assertiveness",false,"Exertion",74,"Effort",true,"Assertiveness",70,"Assertiveness",false,"Exertion",74,"Effort",true,2212,,,,,,,,,
66e7853b4e311a12f93b5411,forced_choice,157,100,"Ingenuity",50,"Creativity and imagination",true,"Interpersonal understanding",16,"Social awareness",true,"Interpersonal understanding",16,"Social awareness",true,"Ingenuity",50,"Creativity and imagination",true,1526,,,,,,,,,
66e7853b4e311a12f93b5411,forced_choice,158,100,"Confidence in groups",13,"Comfort in social situations",true,"Sleep and fatigue",85,"Sleep and fatigue",false,"Sleep and fatigue",85,"Sleep and fatigue",false,"Confidence in groups",13,"Comfort in social situations",true,1181,,,,,,,,,
66e7853b4e311a12f93b5411,forced_choice,159,100,"Personal security",21,"Sense of safety",true,"Exertion",74,"Effort",true,"Personal security",21,"Sense of safety",true,"Exertion",74,"Effort",true,1902,,,,,,,,,
66e7853b4e311a12f93b5411,forced_choice,160,100,"Planning",42,"Planning",false,"Schedule planning",44,"Time management",true,"Schedule planning",44,"Time management",true,"Planning",42,"Planning",false,1008,,,,,,,,,
66e7853b4e311a12f93b5411,forced_choice,161,100,"Connections to friends",9,"Relationships with peers",true,"Planning",42,"Planning",false,"Planning",42,"Planning",false,"Connections to friends",9,"Relationships with peers",true,1173,,,,,,,,,
66e7853b4e311a12f93b5411,forced_choice,162,100,"Looking inward",78,"Self-reflection",true,"Sleep and fatigue",85,"Sleep and fatigue",false,"Sleep and fatigue",85,"Sleep and fatigue",false,"Looking inward",78,"Self-reflection",true,841,,,,,,,,,
66e7853b4e311a12f93b5411,forced_choice,163,100,"Personal security",21,"Sense of safety",true,"Relationships with parents",10,"Relationships with parents",false,"Relationships with parents",10,"Relationships with parents",false,"Personal security",21,"Sense of safety",true,9807,,,,,,,,,
66e7853b4e311a12f93b5411,forced_choice,164,100,"Resolving disputes",24,"Managing conflict",true,"Reading",52,"Reading",false,"Reading",52,"Reading",false,"Resolving disputes",24,"Managing conflict",true,958,,,,,,,,,
66e7853b4e311a12f93b5411,attention_check,167,,,,,,,,,,,,,,,,,,1961,"Social skills","Social skills",true,,,,,,
66e7853b4e311a12f93b5411,forced_choice,165,100,"Relationships with parents",10,"Relationships with parents",false,"Looking inward",78,"Self-reflection",true,"Relationships with parents",10,"Relationships with parents",false,"Looking inward",78,"Self-reflection",true,1533,,,,,,,,,
66e7853b4e311a12f93b5411,forced_choice,166,100,"Schedule planning",44,"Time management",true,"Assertiveness",70,"Assertiveness",false,"Schedule planning",44,"Time management",true,"Assertiveness",70,"Assertiveness",false,1623,,,,,,,,,
66e7853b4e311a12f93b5411,forced_choice,167,100,"Sleep and fatigue",85,"Sleep and fatigue",false,"Connections to friends",9,"Relationships with peers",true,"Sleep and fatigue",85,"Sleep and fatigue",false,"Connections to friends",9,"Relationships with peers",true,1242,,,,,,,,,
66e7853b4e311a12f93b5411,forced_choice,168,100,"Schedule planning",44,"Time management",true,"Drive or ambition",54,"Motivation",true,"Schedule planning",44,"Time management",true,"Drive or ambition",54,"Motivation",true,4434,,,,,,,,,
66e7853b4e311a12f93b5411,forced_choice,169,100,"Planning",42,"Planning",false,"Sleep and fatigue",85,"Sleep and fatigue",false,"Sleep and fatigue",85,"Sleep and fatigue",false,"Planning",42,"Planning",false,1010,,,,,,,,,
66e7853b4e311a12f93b5411,forced_choice,170,100,"Mental health",84,"Emotional well-being",true,"Drive or ambition",54,"Motivation",true,"Drive or ambition",54,"Motivation",true,"Mental health",84,"Emotional well-being",true,4975,,,,,,,,,
66e7853b4e311a12f93b5411,forced_choice,171,100,"Attention",40,"Attention",false,"Imaginative activity",19,"Play",true,"Attention",40,"Attention",false,"Imaginative activity",19,"Play",true,2236,,,,,,,,,
66e7853b4e311a12f93b5411,forced_choice,172,100,"Resolving disputes",24,"Managing conflict",true,"Assertiveness",70,"Assertiveness",false,"Assertiveness",70,"Assertiveness",false,"Resolving disputes",24,"Managing conflict",true,1407,,,,,,,,,
66e7853b4e311a12f93b5411,forced_choice,173,100,"Reasoning ability",35,"Reasoning ability",false,"Classroom contribution",89,"Class participation",true,"Reasoning ability",35,"Reasoning ability",false,"Classroom contribution",89,"Class participation",true,2209,,,,,,,,,
66e7853b4e311a12f93b5411,forced_choice,174,100,"Classroom contribution",89,"Class participation",true,"Interpersonal understanding",16,"Social awareness",true,"Interpersonal understanding",16,"Social awareness",true,"Classroom contribution",89,"Class participation",true,1475,,,,,,,,,
66e7853b4e311a12f93b5411,forced_choice,175,100,"Connections to friends",9,"Relationships with peers",true,"Confidence in groups",13,"Comfort in social situations",true,"Confidence in groups",13,"Comfort in social situations",true,"Connections to friends",9,"Relationships with peers",true,1123,,,,,,,,,
66e7853b4e311a12f93b5411,forced_choice,176,100,"Reasoning ability",35,"Reasoning ability",false,"Attention",40,"Attention",false,"Reasoning ability",35,"Reasoning ability",false,"Attention",40,"Attention",false,1595,,,,,,,,,
66e7853b4e311a12f93b5411,forced_choice,177,100,"Schedule planning",44,"Time management",true,"Sleep and fatigue",85,"Sleep and fatigue",false,"Sleep and fatigue",85,"Sleep and fatigue",false,"Schedule planning",44,"Time management",true,1235,,,,,,,,,
66e7853b4e311a12f93b5411,forced_choice,178,100,"Personal security",21,"Sense of safety",true,"Ingenuity",50,"Creativity and imagination",true,"Ingenuity",50,"Creativity and imagination",true,"Personal security",21,"Sense of safety",true,1162,,,,,,,,,
66e7853b4e311a12f93b5411,forced_choice,179,100,"Looking inward",78,"Self-reflection",true,"Resolving disputes",24,"Managing conflict",true,"Resolving disputes",24,"Managing conflict",true,"Looking inward",78,"Self-reflection",true,1551,,,,,,,,,
66e7853b4e311a12f93b5411,forced_choice,180,100,"Confidence in groups",13,"Comfort in social situations",true,"Resolving disputes",24,"Managing conflict",true,"Confidence in groups",13,"Comfort in social situations",true,"Resolving disputes",24,"Managing conflict",true,1845,,,,,,,,,
66e7853b4e311a12f93b5411,forced_choice,181,100,"Teamwork",12,"Social cooperation",true,"Resolving disputes",24,"Managing conflict",true,"Teamwork",12,"Social cooperation",true,"Resolving disputes",24,"Managing conflict",true,1096,,,,,,,,,
66e7853b4e311a12f93b5411,forced_choice,182,100,"Mental health",84,"Emotional well-being",true,"Launching activities",46,"Task initiation",true,"Mental health",84,"Emotional well-being",true,"Launching activities",46,"Task initiation",true,1741,,,,,,,,,
66e7853b4e311a12f93b5411,forced_choice,183,100,"Attention",40,"Attention",false,"Planning",42,"Planning",false,"Attention",40,"Attention",false,"Planning",42,"Planning",false,1270,,,,,,,,,
66e7853b4e311a12f93b5411,forced_choice,184,100,"Launching activities",46,"Task initiation",true,"Reading",52,"Reading",false,"Reading",52,"Reading",false,"Launching activities",46,"Task initiation",true,1124,,,,,,,,,
66e7853b4e311a12f93b5411,forced_choice,185,100,"Relationships with parents",10,"Relationships with parents",false,"Launching activities",46,"Task initiation",true,"Relationships with parents",10,"Relationships with parents",false,"Launching activities",46,"Task initiation",true,1574,,,,,,,,,
66e7853b4e311a12f93b5411,forced_choice,186,100,"Ingenuity",50,"Creativity and imagination",true,"Schedule planning",44,"Time management",true,"Schedule planning",44,"Time management",true,"Ingenuity",50,"Creativity and imagination",true,3969,,,,,,,,,
66e7853b4e311a12f93b5411,forced_choice,187,100,"Sleep and fatigue",85,"Sleep and fatigue",false,"Reading",52,"Reading",false,"Reading",52,"Reading",false,"Sleep and fatigue",85,"Sleep and fatigue",false,806,,,,,,,,,
66e7853b4e311a12f93b5411,forced_choice,188,100,"Resolving disputes",24,"Managing conflict",true,"Launching activities",46,"Task initiation",true,"Launching activities",46,"Task initiation",true,"Resolving disputes",24,"Managing conflict",true,4410,,,,,,,,,
66e7853b4e311a12f93b5411,forced_choice,189,100,"Self-monitoring",77,"Self-monitoring",false,"Schedule planning",44,"Time management",true,"Schedule planning",44,"Time management",true,"Self-monitoring",77,"Self-monitoring",false,1301,,,,,,,,,
66e7853b4e311a12f93b5411,forced_choice,190,100,"Launching activities",46,"Task initiation",true,"Teamwork",12,"Social cooperation",true,"Teamwork",12,"Social cooperation",true,"Launching activities",46,"Task initiation",true,1382,,,,,,,,,
66e7853b4e311a12f93b5411,forced_choice,191,100,"Looking inward",78,"Self-reflection",true,"Drive or ambition",54,"Motivation",true,"Drive or ambition",54,"Motivation",true,"Looking inward",78,"Self-reflection",true,2184,,,,,,,,,
66e7853b4e311a12f93b5411,forced_choice,192,100,"Mental health",84,"Emotional well-being",true,"Assertiveness",70,"Assertiveness",false,"Mental health",84,"Emotional well-being",true,"Assertiveness",70,"Assertiveness",false,1854,,,,,,,,,
66e7853b4e311a12f93b5411,forced_choice,193,100,"Personal security",21,"Sense of safety",true,"Imaginative activity",19,"Play",true,"Personal security",21,"Sense of safety",true,"Imaginative activity",19,"Play",true,1570,,,,,,,,,
66e7853b4e311a12f93b5411,forced_choice,194,100,"Launching activities",46,"Task initiation",true,"Interpersonal understanding",16,"Social awareness",true,"Interpersonal understanding",16,"Social awareness",true,"Launching activities",46,"Task initiation",true,1943,,,,,,,,,
66e7853b4e311a12f93b5411,forced_choice,195,100,"Planning",42,"Planning",false,"Classroom contribution",89,"Class participation",true,"Planning",42,"Planning",false,"Classroom contribution",89,"Class participation",true,1160,,,,,,,,,
66e7853b4e311a12f93b5411,forced_choice,196,100,"Teamwork",12,"Social cooperation",true,"Mental health",84,"Emotional well-being",true,"Teamwork",12,"Social cooperation",true,"Mental health",84,"Emotional well-being",true,2564,,,,,,,,,
66e7853b4e311a12f93b5411,forced_choice,197,100,"Imaginative activity",19,"Play",true,"Reasoning ability",35,"Reasoning ability",false,"Reasoning ability",35,"Reasoning ability",false,"Imaginative activity",19,"Play",true,3163,,,,,,,,,
66e7853b4e311a12f93b5411,forced_choice,198,100,"Planning",42,"Planning",false,"Assertiveness",70,"Assertiveness",false,"Assertiveness",70,"Assertiveness",false,"Planning",42,"Planning",false,2099,,,,,,,,,
66e7853b4e311a12f93b5411,forced_choice,199,100,"Launching activities",46,"Task initiation",true,"Reasoning ability",35,"Reasoning ability",false,"Reasoning ability",35,"Reasoning ability",false,"Launching activities",46,"Task initiation",true,1174,,,,,,,,,
66e7853b4e311a12f93b5411,forced_choice,200,100,"Resolving disputes",24,"Managing conflict",true,"Exertion",74,"Effort",true,"Resolving disputes",24,"Managing conflict",true,"Exertion",74,"Effort",true,2262,,,,,,,,,
66e7853b4e311a12f93b5411,forced_choice,201,100,"Assertiveness",70,"Assertiveness",false,"Looking inward",78,"Self-reflection",true,"Assertiveness",70,"Assertiveness",false,"Looking inward",78,"Self-reflection",true,2197,,,,,,,,,
66e7853b4e311a12f93b5411,forced_choice,202,100,"Navigating difficulties",25,"Coping skills",true,"Planning",42,"Planning",false,"Planning",42,"Planning",false,"Navigating difficulties",25,"Coping skills",true,2093,,,,,,,,,
66e7853b4e311a12f93b5411,forced_choice,203,100,"Sleep and fatigue",85,"Sleep and fatigue",false,"Personal security",21,"Sense of safety",true,"Sleep and fatigue",85,"Sleep and fatigue",false,"Personal security",21,"Sense of safety",true,1602,,,,,,,,,
66e7853b4e311a12f93b5411,forced_choice,204,100,"Connections to friends",9,"Relationships with peers",true,"Belief in oneself",80,"Self-confidence",true,"Belief in oneself",80,"Self-confidence",true,"Connections to friends",9,"Relationships with peers",true,2944,,,,,,,,,
66e7853b4e311a12f93b5411,forced_choice,205,100,"Self-monitoring",77,"Self-monitoring",false,"Connections to friends",9,"Relationships with peers",true,"Connections to friends",9,"Relationships with peers",true,"Self-monitoring",77,"Self-monitoring",false,1997,,,,,,,,,
66e7853b4e311a12f93b5411,forced_choice,206,100,"Confidence in groups",13,"Comfort in social situations",true,"Resourcefulness",27,"Resourcefulness",false,"Resourcefulness",27,"Resourcefulness",false,"Confidence in groups",13,"Comfort in social situations",true,12590,,,,,,,,,
66e7853b4e311a12f93b5411,forced_choice,207,100,"Resourcefulness",27,"Resourcefulness",false,"Relationships with parents",10,"Relationships with parents",false,"Relationships with parents",10,"Relationships with parents",false,"Resourcefulness",27,"Resourcefulness",false,907,,,,,,,,,
66e7853b4e311a12f93b5411,forced_choice,208,100,"Resourcefulness",27,"Resourcefulness",false,"Classroom contribution",89,"Class participation",true,"Resourcefulness",27,"Resourcefulness",false,"Classroom contribution",89,"Class participation",true,2378,,,,,,,,,
66e7853b4e311a12f93b5411,forced_choice,209,100,"Belief in oneself",80,"Self-confidence",true,"Interpersonal understanding",16,"Social awareness",true,"Belief in oneself",80,"Self-confidence",true,"Interpersonal understanding",16,"Social awareness",true,914,,,,,,,,,
66e7853b4e311a12f93b5411,forced_choice,210,100,"Sleep and fatigue",85,"Sleep and fatigue",false,"Reasoning ability",35,"Reasoning ability",false,"Sleep and fatigue",85,"Sleep and fatigue",false,"Reasoning ability",35,"Reasoning ability",false,1768,,,,,,,,,
66e7853b4e311a12f93b5411,forced_choice,211,100,"Planning",42,"Planning",false,"Mental health",84,"Emotional well-being",true,"Mental health",84,"Emotional well-being",true,"Planning",42,"Planning",false,6320,,,,,,,,,
66e7853b4e311a12f93b5411,forced_choice,212,100,"Interpersonal understanding",16,"Social awareness",true,"Self-monitoring",77,"Self-monitoring",false,"Self-monitoring",77,"Self-monitoring",false,"Interpersonal understanding",16,"Social awareness",true,2048,,,,,,,,,
66e7853b4e311a12f93b5411,forced_choice,213,100,"Schedule planning",44,"Time management",true,"Belief in oneself",80,"Self-confidence",true,"Belief in oneself",80,"Self-confidence",true,"Schedule planning",44,"Time management",true,1353,,,,,,,,,
66e7853b4e311a12f93b5411,forced_choice,214,100,"Assertiveness",70,"Assertiveness",false,"Reading",52,"Reading",false,"Reading",52,"Reading",false,"Assertiveness",70,"Assertiveness",false,720,,,,,,,,,
66e7853b4e311a12f93b5411,forced_choice,215,100,"Connections to friends",9,"Relationships with peers",true,"Ingenuity",50,"Creativity and imagination",true,"Connections to friends",9,"Relationships with peers",true,"Ingenuity",50,"Creativity and imagination",true,1448,,,,,,,,,
66e7853b4e311a12f93b5411,forced_choice,216,100,"Resourcefulness",27,"Resourcefulness",false,"Imaginative activity",19,"Play",true,"Imaginative activity",19,"Play",true,"Resourcefulness",27,"Resourcefulness",false,1556,,,,,,,,,
66e7853b4e311a12f93b5411,forced_choice,217,100,"Navigating difficulties",25,"Coping skills",true,"Imaginative activity",19,"Play",true,"Imaginative activity",19,"Play",true,"Navigating difficulties",25,"Coping skills",true,1366,,,,,,,,,
66e7853b4e311a12f93b5411,forced_choice,218,100,"Launching activities",46,"Task initiation",true,"Imaginative activity",19,"Play",true,"Launching activities",46,"Task initiation",true,"Imaginative activity",19,"Play",true,1544,,,,,,,,,
66e7853b4e311a12f93b5411,forced_choice,219,100,"Belief in oneself",80,"Self-confidence",true,"Exertion",74,"Effort",true,"Belief in oneself",80,"Self-confidence",true,"Exertion",74,"Effort",true,2714,,,,,,,,,
66e7853b4e311a12f93b5411,attention_check,223,,,,,,,,,,,,,,,,,,4596,"Social skills","Social skills",true,,,,,,
66e7853b4e311a12f93b5411,forced_choice,220,100,"Confidence in groups",13,"Comfort in social situations",true,"Navigating difficulties",25,"Coping skills",true,"Navigating difficulties",25,"Coping skills",true,"Confidence in groups",13,"Comfort in social situations",true,25748,,,,,,,,,
66e7853b4e311a12f93b5411,forced_choice,221,100,"Sleep and fatigue",85,"Sleep and fatigue",false,"Launching activities",46,"Task initiation",true,"Sleep and fatigue",85,"Sleep and fatigue",false,"Launching activities",46,"Task initiation",true,1526,,,,,,,,,
66e7853b4e311a12f93b5411,forced_choice,222,100,"Connections to friends",9,"Relationships with peers",true,"Classroom contribution",89,"Class participation",true,"Connections to friends",9,"Relationships with peers",true,"Classroom contribution",89,"Class participation",true,1648,,,,,,,,,
66e7853b4e311a12f93b5411,forced_choice,223,100,"Assertiveness",70,"Assertiveness",false,"Belief in oneself",80,"Self-confidence",true,"Belief in oneself",80,"Self-confidence",true,"Assertiveness",70,"Assertiveness",false,1468,,,,,,,,,
66e7853b4e311a12f93b5411,forced_choice,224,100,"Mental health",84,"Emotional well-being",true,"Reasoning ability",35,"Reasoning ability",false,"Reasoning ability",35,"Reasoning ability",false,"Mental health",84,"Emotional well-being",true,1909,,,,,,,,,
66e7853b4e311a12f93b5411,forced_choice,225,100,"Drive or ambition",54,"Motivation",true,"Sleep and fatigue",85,"Sleep and fatigue",false,"Sleep and fatigue",85,"Sleep and fatigue",false,"Drive or ambition",54,"Motivation",true,2140,,,,,,,,,
66e7853b4e311a12f93b5411,forced_choice,226,100,"Navigating difficulties",25,"Coping skills",true,"Ingenuity",50,"Creativity and imagination",true,"Navigating difficulties",25,"Coping skills",true,"Ingenuity",50,"Creativity and imagination",true,1561,,,,,,,,,
66e7853b4e311a12f93b5411,forced_choice,227,100,"Personal security",21,"Sense of safety",true,"Drive or ambition",54,"Motivation",true,"Drive or ambition",54,"Motivation",true,"Personal security",21,"Sense of safety",true,1341,,,,,,,,,
66e7853b4e311a12f93b5411,forced_choice,228,100,"Self-monitoring",77,"Self-monitoring",false,"Attention",40,"Attention",false,"Attention",40,"Attention",false,"Self-monitoring",77,"Self-monitoring",false,1265,,,,,,,,,
66e7853b4e311a12f93b5411,forced_choice,229,100,"Mental health",84,"Emotional well-being",true,"Looking inward",78,"Self-reflection",true,"Mental health",84,"Emotional well-being",true,"Looking inward",78,"Self-reflection",true,1559,,,,,,,,,
66e7853b4e311a12f93b5411,forced_choice,230,100,"Ingenuity",50,"Creativity and imagination",true,"Confidence in groups",13,"Comfort in social situations",true,"Confidence in groups",13,"Comfort in social situations",true,"Ingenuity",50,"Creativity and imagination",true,1384,,,,,,,,,
66e7853b4e311a12f93b5411,forced_choice,231,100,"Teamwork",12,"Social cooperation",true,"Interpersonal understanding",16,"Social awareness",true,"Interpersonal understanding",16,"Social awareness",true,"Teamwork",12,"Social cooperation",true,11599,,,,,,,,,
66e7853b4e311a12f93b5411,forced_choice,232,100,"Interpersonal understanding",16,"Social awareness",true,"Sleep and fatigue",85,"Sleep and fatigue",false,"Sleep and fatigue",85,"Sleep and fatigue",false,"Interpersonal understanding",16,"Social awareness",true,2931,,,,,,,,,
66e7853b4e311a12f93b5411,forced_choice,233,100,"Launching activities",46,"Task initiation",true,"Classroom contribution",89,"Class participation",true,"Classroom contribution",89,"Class participation",true,"Launching activities",46,"Task initiation",true,2168,,,,,,,,,
66e7853b4e311a12f93b5411,forced_choice,234,100,"Belief in oneself",80,"Self-confidence",true,"Drive or ambition",54,"Motivation",true,"Belief in oneself",80,"Self-confidence",true,"Drive or ambition",54,"Motivation",true,1552,,,,,,,,,
66e7853b4e311a12f93b5411,forced_choice,235,100,"Connections to friends",9,"Relationships with peers",true,"Looking inward",78,"Self-reflection",true,"Connections to friends",9,"Relationships with peers",true,"Looking inward",78,"Self-reflection",true,1523,,,,,,,,,
66e7853b4e311a12f93b5411,forced_choice,236,100,"Navigating difficulties",25,"Coping skills",true,"Exertion",74,"Effort",true,"Navigating difficulties",25,"Coping skills",true,"Exertion",74,"Effort",true,1650,,,,,,,,,
66e7853b4e311a12f93b5411,forced_choice,237,100,"Attention",40,"Attention",false,"Interpersonal understanding",16,"Social awareness",true,"Interpersonal understanding",16,"Social awareness",true,"Attention",40,"Attention",false,10984,,,,,,,,,
66e7853b4e311a12f93b5411,forced_choice,238,100,"Resolving disputes",24,"Managing conflict",true,"Schedule planning",44,"Time management",true,"Schedule planning",44,"Time management",true,"Resolving disputes",24,"Managing conflict",true,1429,,,,,,,,,
66e7853b4e311a12f93b5411,forced_choice,239,100,"Self-monitoring",77,"Self-monitoring",false,"Resolving disputes",24,"Managing conflict",true,"Resolving disputes",24,"Managing conflict",true,"Self-monitoring",77,"Self-monitoring",false,1317,,,,,,,,,
66e7853b4e311a12f93b5411,forced_choice,240,100,"Ingenuity",50,"Creativity and imagination",true,"Reading",52,"Reading",false,"Reading",52,"Reading",false,"Ingenuity",50,"Creativity and imagination",true,933,,,,,,,,,
66e7853b4e311a12f93b5411,forced_choice,241,100,"Self-monitoring",77,"Self-monitoring",false,"Relationships with parents",10,"Relationships with parents",false,"Relationships with parents",10,"Relationships with parents",false,"Self-monitoring",77,"Self-monitoring",false,1133,,,,,,,,,
66e7853b4e311a12f93b5411,forced_choice,242,100,"Planning",42,"Planning",false,"Imaginative activity",19,"Play",true,"Planning",42,"Planning",false,"Imaginative activity",19,"Play",true,1578,,,,,,,,,
66e7853b4e311a12f93b5411,forced_choice,243,100,"Personal security",21,"Sense of safety",true,"Teamwork",12,"Social cooperation",true,"Teamwork",12,"Social cooperation",true,"Personal security",21,"Sense of safety",true,933,,,,,,,,,
66e7853b4e311a12f93b5411,forced_choice,244,100,"Sleep and fatigue",85,"Sleep and fatigue",false,"Resolving disputes",24,"Managing conflict",true,"Sleep and fatigue",85,"Sleep and fatigue",false,"Resolving disputes",24,"Managing conflict",true,857,,,,,,,,,
66e7853b4e311a12f93b5411,forced_choice,245,100,"Relationships with parents",10,"Relationships with parents",false,"Drive or ambition",54,"Motivation",true,"Relationships with parents",10,"Relationships with parents",false,"Drive or ambition",54,"Motivation",true,1858,,,,,,,,,
66e7853b4e311a12f93b5411,forced_choice,246,100,"Imaginative activity",19,"Play",true,"Sleep and fatigue",85,"Sleep and fatigue",false,"Sleep and fatigue",85,"Sleep and fatigue",false,"Imaginative activity",19,"Play",true,1285,,,,,,,,,
66e7853b4e311a12f93b5411,forced_choice,247,100,"Reading",52,"Reading",false,"Mental health",84,"Emotional well-being",true,"Reading",52,"Reading",false,"Mental health",84,"Emotional well-being",true,1434,,,,,,,,,
66e7853b4e311a12f93b5411,forced_choice,248,100,"Attention",40,"Attention",false,"Ingenuity",50,"Creativity and imagination",true,"Attention",40,"Attention",false,"Ingenuity",50,"Creativity and imagination",true,1956,,,,,,,,,
66e7853b4e311a12f93b5411,forced_choice,249,100,"Self-monitoring",77,"Self-monitoring",false,"Imaginative activity",19,"Play",true,"Self-monitoring",77,"Self-monitoring",false,"Imaginative activity",19,"Play",true,1284,,,,,,,,,
66e7853b4e311a12f93b5411,forced_choice,250,100,"Personal security",21,"Sense of safety",true,"Assertiveness",70,"Assertiveness",false,"Personal security",21,"Sense of safety",true,"Assertiveness",70,"Assertiveness",false,1159,,,,,,,,,
66e7853b4e311a12f93b5411,forced_choice,251,100,"Belief in oneself",80,"Self-confidence",true,"Reasoning ability",35,"Reasoning ability",false,"Belief in oneself",80,"Self-confidence",true,"Reasoning ability",35,"Reasoning ability",false,1333,,,,,,,,,
66e7853b4e311a12f93b5411,forced_choice,252,100,"Relationships with parents",10,"Relationships with parents",false,"Reasoning ability",35,"Reasoning ability",false,"Relationships with parents",10,"Relationships with parents",false,"Reasoning ability",35,"Reasoning ability",false,1433,,,,,,,,,
66e7853b4e311a12f93b5411,forced_choice,253,100,"Personal security",21,"Sense of safety",true,"Planning",42,"Planning",false,"Personal security",21,"Sense of safety",true,"Planning",42,"Planning",false,7461,,,,,,,,,
66e7853b4e311a12f93b5411,forced_choice,254,100,"Confidence in groups",13,"Comfort in social situations",true,"Classroom contribution",89,"Class participation",true,"Confidence in groups",13,"Comfort in social situations",true,"Classroom contribution",89,"Class participation",true,1459,,,,,,,,,
66e7853b4e311a12f93b5411,forced_choice,255,100,"Relationships with parents",10,"Relationships with parents",false,"Connections to friends",9,"Relationships with peers",true,"Relationships with parents",10,"Relationships with parents",false,"Connections to friends",9,"Relationships with peers",true,875,,,,,,,,,
66e7853b4e311a12f93b5411,forced_choice,256,100,"Exertion",74,"Effort",true,"Looking inward",78,"Self-reflection",true,"Looking inward",78,"Self-reflection",true,"Exertion",74,"Effort",true,1302,,,,,,,,,
66e7853b4e311a12f93b5411,forced_choice,257,100,"Interpersonal understanding",16,"Social awareness",true,"Resourcefulness",27,"Resourcefulness",false,"Interpersonal understanding",16,"Social awareness",true,"Resourcefulness",27,"Resourcefulness",false,1249,,,,,,,,,
66e7853b4e311a12f93b5411,forced_choice,258,100,"Ingenuity",50,"Creativity and imagination",true,"Drive or ambition",54,"Motivation",true,"Drive or ambition",54,"Motivation",true,"Ingenuity",50,"Creativity and imagination",true,1233,,,,,,,,,
66e7853b4e311a12f93b5411,forced_choice,259,100,"Resourcefulness",27,"Resourcefulness",false,"Drive or ambition",54,"Motivation",true,"Drive or ambition",54,"Motivation",true,"Resourcefulness",27,"Resourcefulness",false,904,,,,,,,,,
66e7853b4e311a12f93b5411,forced_choice,260,100,"Reading",52,"Reading",false,"Personal security",21,"Sense of safety",true,"Reading",52,"Reading",false,"Personal security",21,"Sense of safety",true,1129,,,,,,,,,
66e7853b4e311a12f93b5411,forced_choice,261,100,"Reading",52,"Reading",false,"Planning",42,"Planning",false,"Reading",52,"Reading",false,"Planning",42,"Planning",false,797,,,,,,,,,
66e7853b4e311a12f93b5411,forced_choice,262,100,"Classroom contribution",89,"Class participation",true,"Personal security",21,"Sense of safety",true,"Classroom contribution",89,"Class participation",true,"Personal security",21,"Sense of safety",true,2326,,,,,,,,,
66e7853b4e311a12f93b5411,forced_choice,263,100,"Launching activities",46,"Task initiation",true,"Exertion",74,"Effort",true,"Launching activities",46,"Task initiation",true,"Exertion",74,"Effort",true,4535,,,,,,,,,
66e7853b4e311a12f93b5411,forced_choice,264,100,"Imaginative activity",19,"Play",true,"Reading",52,"Reading",false,"Imaginative activity",19,"Play",true,"Reading",52,"Reading",false,975,,,,,,,,,
66e7853b4e311a12f93b5411,forced_choice,265,100,"Confidence in groups",13,"Comfort in social situations",true,"Reasoning ability",35,"Reasoning ability",false,"Confidence in groups",13,"Comfort in social situations",true,"Reasoning ability",35,"Reasoning ability",false,2261,,,,,,,,,
66e7853b4e311a12f93b5411,forced_choice,266,100,"Resourcefulness",27,"Resourcefulness",false,"Assertiveness",70,"Assertiveness",false,"Resourcefulness",27,"Resourcefulness",false,"Assertiveness",70,"Assertiveness",false,2282,,,,,,,,,
66e7853b4e311a12f93b5411,forced_choice,267,100,"Assertiveness",70,"Assertiveness",false,"Sleep and fatigue",85,"Sleep and fatigue",false,"Sleep and fatigue",85,"Sleep and fatigue",false,"Assertiveness",70,"Assertiveness",false,1726,,,,,,,,,
66e7853b4e311a12f93b5411,forced_choice,268,100,"Resourcefulness",27,"Resourcefulness",false,"Attention",40,"Attention",false,"Attention",40,"Attention",false,"Resourcefulness",27,"Resourcefulness",false,1121,,,,,,,,,
66e7853b4e311a12f93b5411,forced_choice,269,100,"Schedule planning",44,"Time management",true,"Teamwork",12,"Social cooperation",true,"Teamwork",12,"Social cooperation",true,"Schedule planning",44,"Time management",true,1609,,,,,,,,,
66e7853b4e311a12f93b5411,forced_choice,270,100,"Teamwork",12,"Social cooperation",true,"Classroom contribution",89,"Class participation",true,"Teamwork",12,"Social cooperation",true,"Classroom contribution",89,"Class participation",true,744,,,,,,,,,
66e7853b4e311a12f93b5411,forced_choice,271,100,"Resourcefulness",27,"Resourcefulness",false,"Planning",42,"Planning",false,"Planning",42,"Planning",false,"Resourcefulness",27,"Resourcefulness",false,1674,,,,,,,,,
66e7853b4e311a12f93b5411,forced_choice,272,100,"Self-monitoring",77,"Self-monitoring",false,"Ingenuity",50,"Creativity and imagination",true,"Self-monitoring",77,"Self-monitoring",false,"Ingenuity",50,"Creativity and imagination",true,1143,,,,,,,,,
66e7853b4e311a12f93b5411,forced_choice,273,100,"Mental health",84,"Emotional well-being",true,"Resolving disputes",24,"Managing conflict",true,"Mental health",84,"Emotional well-being",true,"Resolving disputes",24,"Managing conflict",true,1480,,,,,,,,,
66e7853b4e311a12f93b5411,forced_choice,274,100,"Looking inward",78,"Self-reflection",true,"Navigating difficulties",25,"Coping skills",true,"Looking inward",78,"Self-reflection",true,"Navigating difficulties",25,"Coping skills",true,22613,,,,,,,,,
66e7853b4e311a12f93b5411,attention_check,279,,,,,,,,,,,,,,,,,,1944,"Social skills","Social skills",true,,,,,,
66e7853b4e311a12f93b5411,forced_choice,275,100,"Belief in oneself",80,"Self-confidence",true,"Navigating difficulties",25,"Coping skills",true,"Belief in oneself",80,"Self-confidence",true,"Navigating difficulties",25,"Coping skills",true,1908,,,,,,,,,
66e7853b4e311a12f93b5411,forced_choice,276,100,"Looking inward",78,"Self-reflection",true,"Interpersonal understanding",16,"Social awareness",true,"Interpersonal understanding",16,"Social awareness",true,"Looking inward",78,"Self-reflection",true,2726,,,,,,,,,
66e7853b4e311a12f93b5411,forced_choice,277,100,"Classroom contribution",89,"Class participation",true,"Sleep and fatigue",85,"Sleep and fatigue",false,"Sleep and fatigue",85,"Sleep and fatigue",false,"Classroom contribution",89,"Class participation",true,4892,,,,,,,,,
66e7853b4e311a12f93b5411,forced_choice,278,100,"Reading",52,"Reading",false,"Self-monitoring",77,"Self-monitoring",false,"Reading",52,"Reading",false,"Self-monitoring",77,"Self-monitoring",false,1085,,,,,,,,,
66e7853b4e311a12f93b5411,forced_choice,279,100,"Planning",42,"Planning",false,"Ingenuity",50,"Creativity and imagination",true,"Ingenuity",50,"Creativity and imagination",true,"Planning",42,"Planning",false,1517,,,,,,,,,
66e7853b4e311a12f93b5411,forced_choice,280,100,"Classroom contribution",89,"Class participation",true,"Belief in oneself",80,"Self-confidence",true,"Belief in oneself",80,"Self-confidence",true,"Classroom contribution",89,"Class participation",true,957,,,,,,,,,
66e7853b4e311a12f93b5411,forced_choice,281,100,"Confidence in groups",13,"Comfort in social situations",true,"Assertiveness",70,"Assertiveness",false,"Assertiveness",70,"Assertiveness",false,"Confidence in groups",13,"Comfort in social situations",true,1967,,,,,,,,,
66e7853b4e311a12f93b5411,forced_choice,282,100,"Looking inward",78,"Self-reflection",true,"Confidence in groups",13,"Comfort in social situations",true,"Confidence in groups",13,"Comfort in social situations",true,"Looking inward",78,"Self-reflection",true,2437,,,,,,,,,
66e7853b4e311a12f93b5411,forced_choice,283,100,"Personal security",21,"Sense of safety",true,"Reasoning ability",35,"Reasoning ability",false,"Reasoning ability",35,"Reasoning ability",false,"Personal security",21,"Sense of safety",true,2631,,,,,,,,,
66e7853b4e311a12f93b5411,forced_choice,284,100,"Relationships with parents",10,"Relationships with parents",false,"Classroom contribution",89,"Class participation",true,"Relationships with parents",10,"Relationships with parents",false,"Classroom contribution",89,"Class participation",true,2711,,,,,,,,,
66e7853b4e311a12f93b5411,forced_choice,285,100,"Reading",52,"Reading",false,"Interpersonal understanding",16,"Social awareness",true,"Reading",52,"Reading",false,"Interpersonal understanding",16,"Social awareness",true,755,,,,,,,,,
66e7853b4e311a12f93b5411,forced_choice,286,100,"Teamwork",12,"Social cooperation",true,"Navigating difficulties",25,"Coping skills",true,"Teamwork",12,"Social cooperation",true,"Navigating difficulties",25,"Coping skills",true,2469,,,,,,,,,
66e7853b4e311a12f93b5411,forced_choice,287,100,"Mental health",84,"Emotional well-being",true,"Confidence in groups",13,"Comfort in social situations",true,"Confidence in groups",13,"Comfort in social situations",true,"Mental health",84,"Emotional well-being",true,2852,,,,,,,,,
66e7853b4e311a12f93b5411,forced_choice,288,100,"Relationships with parents",10,"Relationships with parents",false,"Planning",42,"Planning",false,"Planning",42,"Planning",false,"Relationships with parents",10,"Relationships with parents",false,1981,,,,,,,,,
66e7853b4e311a12f93b5411,forced_choice,289,100,"Imaginative activity",19,"Play",true,"Ingenuity",50,"Creativity and imagination",true,"Imaginative activity",19,"Play",true,"Ingenuity",50,"Creativity and imagination",true,3238,,,,,,,,,
66e7853b4e311a12f93b5411,forced_choice,290,100,"Resolving disputes",24,"Managing conflict",true,"Attention",40,"Attention",false,"Attention",40,"Attention",false,"Resolving disputes",24,"Managing conflict",true,1682,,,,,,,,,
66e7853b4e311a12f93b5411,forced_choice,291,100,"Sleep and fatigue",85,"Sleep and fatigue",false,"Mental health",84,"Emotional well-being",true,"Sleep and fatigue",85,"Sleep and fatigue",false,"Mental health",84,"Emotional well-being",true,3826,,,,,,,,,
66e7853b4e311a12f93b5411,forced_choice,292,100,"Resourcefulness",27,"Resourcefulness",false,"Launching activities",46,"Task initiation",true,"Resourcefulness",27,"Resourcefulness",false,"Launching activities",46,"Task initiation",true,1848,,,,,,,,,
66e7853b4e311a12f93b5411,forced_choice,293,100,"Launching activities",46,"Task initiation",true,"Attention",40,"Attention",false,"Attention",40,"Attention",false,"Launching activities",46,"Task initiation",true,1836,,,,,,,,,
66e7853b4e311a12f93b5411,forced_choice,294,100,"Reading",52,"Reading",false,"Classroom contribution",89,"Class participation",true,"Reading",52,"Reading",false,"Classroom contribution",89,"Class participation",true,4727,,,,,,,,,
66e7853b4e311a12f93b5411,forced_choice,295,100,"Attention",40,"Attention",false,"Belief in oneself",80,"Self-confidence",true,"Attention",40,"Attention",false,"Belief in oneself",80,"Self-confidence",true,1233,,,,,,,,,
66e7853b4e311a12f93b5411,forced_choice,296,100,"Looking inward",78,"Self-reflection",true,"Resourcefulness",27,"Resourcefulness",false,"Resourcefulness",27,"Resourcefulness",false,"Looking inward",78,"Self-reflection",true,6163,,,,,,,,,
66e7853b4e311a12f93b5411,forced_choice,297,100,"Ingenuity",50,"Creativity and imagination",true,"Relationships with parents",10,"Relationships with parents",false,"Relationships with parents",10,"Relationships with parents",false,"Ingenuity",50,"Creativity and imagination",true,3082,,,,,,,,,
66e7853b4e311a12f93b5411,forced_choice,298,100,"Resourcefulness",27,"Resourcefulness",false,"Schedule planning",44,"Time management",true,"Schedule planning",44,"Time management",true,"Resourcefulness",27,"Resourcefulness",false,1293,,,,,,,,,
66e7853b4e311a12f93b5411,forced_choice,299,100,"Reasoning ability",35,"Reasoning ability",false,"Ingenuity",50,"Creativity and imagination",true,"Reasoning ability",35,"Reasoning ability",false,"Ingenuity",50,"Creativity and imagination",true,1451,,,,,,,,,
66e7853b4e311a12f93b5411,forced_choice,300,100,"Reading",52,"Reading",false,"Relationships with parents",10,"Relationships with parents",false,"Reading",52,"Reading",false,"Relationships with parents",10,"Relationships with parents",false,847,,,,,,,,,
66e7853b4e311a12f93b5411,forced_choice,301,100,"Planning",42,"Planning",false,"Exertion",74,"Effort",true,"Planning",42,"Planning",false,"Exertion",74,"Effort",true,4070,,,,,,,,,
66e7853b4e311a12f93b5411,forced_choice,302,100,"Attention",40,"Attention",false,"Sleep and fatigue",85,"Sleep and fatigue",false,"Attention",40,"Attention",false,"Sleep and fatigue",85,"Sleep and fatigue",false,930,,,,,,,,,
66e7853b4e311a12f93b5411,forced_choice,303,100,"Teamwork",12,"Social cooperation",true,"Reasoning ability",35,"Reasoning ability",false,"Reasoning ability",35,"Reasoning ability",false,"Teamwork",12,"Social cooperation",true,3829,,,,,,,,,
66e7853b4e311a12f93b5411,forced_choice,304,100,"Resourcefulness",27,"Resourcefulness",false,"Resolving disputes",24,"Managing conflict",true,"Resourcefulness",27,"Resourcefulness",false,"Resolving disputes",24,"Managing conflict",true,1417,,,,,,,,,
66e7853b4e311a12f93b5411,forced_choice,305,100,"Interpersonal understanding",16,"Social awareness",true,"Imaginative activity",19,"Play",true,"Imaginative activity",19,"Play",true,"Interpersonal understanding",16,"Social awareness",true,4552,,,,,,,,,
66e7853b4e311a12f93b5411,forced_choice,306,100,"Connections to friends",9,"Relationships with peers",true,"Teamwork",12,"Social cooperation",true,"Teamwork",12,"Social cooperation",true,"Connections to friends",9,"Relationships with peers",true,4425,,,,,,,,,
66e7853b4e311a12f93b5411,forced_choice,307,100,"Launching activities",46,"Task initiation",true,"Ingenuity",50,"Creativity and imagination",true,"Ingenuity",50,"Creativity and imagination",true,"Launching activities",46,"Task initiation",true,1359,,,,,,,,,
66e7853b4e311a12f93b5411,forced_choice,308,100,"Ingenuity",50,"Creativity and imagination",true,"Classroom contribution",89,"Class participation",true,"Classroom contribution",89,"Class participation",true,"Ingenuity",50,"Creativity and imagination",true,1447,,,,,,,,,
66e7853b4e311a12f93b5411,forced_choice,309,100,"Attention",40,"Attention",false,"Mental health",84,"Emotional well-being",true,"Attention",40,"Attention",false,"Mental health",84,"Emotional well-being",true,1225,,,,,,,,,
66e7853b4e311a12f93b5411,forced_choice,310,100,"Looking inward",78,"Self-reflection",true,"Belief in oneself",80,"Self-confidence",true,"Belief in oneself",80,"Self-confidence",true,"Looking inward",78,"Self-reflection",true,2046,,,,,,,,,
66e7853b4e311a12f93b5411,forced_choice,311,100,"Launching activities",46,"Task initiation",true,"Assertiveness",70,"Assertiveness",false,"Assertiveness",70,"Assertiveness",false,"Launching activities",46,"Task initiation",true,1699,,,,,,,,,
66e7853b4e311a12f93b5411,forced_choice,312,100,"Drive or ambition",54,"Motivation",true,"Teamwork",12,"Social cooperation",true,"Teamwork",12,"Social cooperation",true,"Drive or ambition",54,"Motivation",true,2444,,,,,,,,,
66e7853b4e311a12f93b5411,forced_choice,313,100,"Classroom contribution",89,"Class participation",true,"Imaginative activity",19,"Play",true,"Imaginative activity",19,"Play",true,"Classroom contribution",89,"Class participation",true,3766,,,,,,,,,
66e7853b4e311a12f93b5411,forced_choice,314,100,"Drive or ambition",54,"Motivation",true,"Reasoning ability",35,"Reasoning ability",false,"Drive or ambition",54,"Motivation",true,"Reasoning ability",35,"Reasoning ability",false,1529,,,,,,,,,
66e7853b4e311a12f93b5411,forced_choice,315,100,"Looking inward",78,"Self-reflection",true,"Personal security",21,"Sense of safety",true,"Personal security",21,"Sense of safety",true,"Looking inward",78,"Self-reflection",true,2132,,,,,,,,,
66e7853b4e311a12f93b5411,forced_choice,316,100,"Confidence in groups",13,"Comfort in social situations",true,"Attention",40,"Attention",false,"Attention",40,"Attention",false,"Confidence in groups",13,"Comfort in social situations",true,1240,,,,,,,,,
66e7853b4e311a12f93b5411,forced_choice,317,100,"Reading",52,"Reading",false,"Teamwork",12,"Social cooperation",true,"Reading",52,"Reading",false,"Teamwork",12,"Social cooperation",true,894,,,,,,,,,
66e7853b4e311a12f93b5411,forced_choice,318,100,"Exertion",74,"Effort",true,"Teamwork",12,"Social cooperation",true,"Teamwork",12,"Social cooperation",true,"Exertion",74,"Effort",true,1100,,,,,,,,,
66e7853b4e311a12f93b5411,forced_choice,319,100,"Personal security",21,"Sense of safety",true,"Schedule planning",44,"Time management",true,"Schedule planning",44,"Time management",true,"Personal security",21,"Sense of safety",true,1148,,,,,,,,,
66e7853b4e311a12f93b5411,forced_choice,320,100,"Exertion",74,"Effort",true,"Imaginative activity",19,"Play",true,"Exertion",74,"Effort",true,"Imaginative activity",19,"Play",true,3152,,,,,,,,,
66e7853b4e311a12f93b5411,forced_choice,321,100,"Sleep and fatigue",85,"Sleep and fatigue",false,"Belief in oneself",80,"Self-confidence",true,"Sleep and fatigue",85,"Sleep and fatigue",false,"Belief in oneself",80,"Self-confidence",true,3117,,,,,,,,,
66e7853b4e311a12f93b5411,forced_choice,322,100,"Sleep and fatigue",85,"Sleep and fatigue",false,"Exertion",74,"Effort",true,"Sleep and fatigue",85,"Sleep and fatigue",false,"Exertion",74,"Effort",true,915,,,,,,,,,
66e7853b4e311a12f93b5411,forced_choice,323,100,"Drive or ambition",54,"Motivation",true,"Self-monitoring",77,"Self-monitoring",false,"Drive or ambition",54,"Motivation",true,"Self-monitoring",77,"Self-monitoring",false,1249,,,,,,,,,
66e7853b4e311a12f93b5411,forced_choice,324,100,"Mental health",84,"Emotional well-being",true,"Interpersonal understanding",16,"Social awareness",true,"Mental health",84,"Emotional well-being",true,"Interpersonal understanding",16,"Social awareness",true,2202,,,,,,,,,
