user_id,task,trial_index,subset_index,left_term,left_construct_id,left_canonical,left_is_synonym,right_term,right_construct_id,right_canonical,right_is_synonym,chosen_term,chosen_construct_id,chosen_canonical,chosen_is_synonym,unchosen_term,unchosen_construct_id,unchosen_canonical,unchosen_is_synonym,response_time,correct_word,chosen_word,passed,grade_levels,special_needs,school_type,experience,class_size,country
611f222b87129e565f38fb31,demographics,,,,,,,,,,,,,,,,,,,,,,,"primary","no","public","2-5","15-25","South Africa"
611f222b87129e565f38fb31,forced_choice,0,376,"Controlling feelings",29,"Managing emotions",true,"Emotional disposition",32,"Mood",true,"Controlling feelings",29,"Managing emotions",true,"Emotional disposition",32,"Mood",true,15781,,,,,,,,,
611f222b87129e565f38fb31,forced_choice,1,376,"Goal mapping",42,"Planning",true,"Introspection",78,"Self-reflection",true,"Goal mapping",42,"Planning",true,"Introspection",78,"Self-reflection",true,9247,,,,,,,,,
611f222b87129e565f38fb31,forced_choice,2,376,"Cognitive control",34,"Managing thoughts",true,"Response to criticism",39,"Learning from feedback and mistakes",true,"Response to criticism",39,"Learning from feedback and mistakes",true,"Cognitive control",34,"Managing thoughts",true,5351,,,,,,,,,
611f222b87129e565f38fb31,forced_choice,3,376,"Organization",43,"Organization",false,"Controlling feelings",29,"Managing emotions",true,"Controlling feelings",29,"Managing emotions",true,"Organization",43,"Organization",false,23160,,,,,,,,,
611f222b87129e565f38fb31,forced_choice,4,376,"Organization",43,"Organization",false,"Interpersonal ease",13,"Comfort in social situations",true,"Interpersonal ease",13,"Comfort in social situations",true,"Organization",43,"Organization",false,7248,,,,,,,,,
611f222b87129e565f38fb31,forced_choice,5,376,"Ability to wait",62,"Patience",true,"Introspection",78,"Self-reflection",true,"Ability to wait",62,"Patience",true,"Introspection",78,"Self-reflection",true,3851,,,,,,,,,
611f222b87129e565f38fb31,forced_choice,6,376,"Skill development",38,"Learning new things",true,"Response to criticism",39,"Learning from feedback and mistakes",true,"Skill development",38,"Learning new things",true,"Response to criticism",39,"Learning from feedback and mistakes",true,3711,,,,,,,,,
611f222b87129e565f38fb31,forced_choice,7,376,"Intimidation",23,"Bullying",true,"Self-kindness",79,"Self-acceptance",true,"Self-kindness",79,"Self-acceptance",true,"Intimidation",23,"Bullying",true,5185,,,,,,,,,
611f222b87129e565f38fb31,forced_choice,8,376,"Regulating conduct",0,"Managing behavior",true,"Collaboration with others",12,"Social cooperation",true,"Collaboration with others",12,"Social cooperation",true,"Regulating conduct",0,"Managing behavior",true,2729,,,,,,,,,
611f222b87129e565f38fb31,forced_choice,9,376,"Regulating conduct",0,"Managing behavior",true,"Controlling feelings",29,"Managing emotions",true,"Regulating conduct",0,"Managing behavior",true,"Controlling feelings",29,"Managing emotions",true,6449,,,,,,,,,
611f222b87129e565f38fb31,forced_choice,10,376,"Goal mapping",42,"Planning",true,"Cognitive control",34,"Managing thoughts",true,"Cognitive control",34,"Managing thoughts",true,"Goal mapping",42,"Planning",true,1984,,,,,,,,,
611f222b87129e565f38fb31,forced_choice,11,376,"Cognitive control",34,"Managing thoughts",true,"Sexual behavior",18,"Sexual behavior",false,"Cognitive control",34,"Managing thoughts",true,"Sexual behavior",18,"Sexual behavior",false,2046,,,,,,,,,
611f222b87129e565f38fb31,forced_choice,12,376,"Self-kindness",79,"Self-acceptance",true,"Troubleshooting",37,"Problem solving",true,"Self-kindness",79,"Self-acceptance",true,"Troubleshooting",37,"Problem solving",true,4347,,,,,,,,,
611f222b87129e565f38fb31,forced_choice,13,376,"Exhaustion",85,"Sleep and fatigue",true,"Cognitive control",34,"Managing thoughts",true,"Cognitive control",34,"Managing thoughts",true,"Exhaustion",85,"Sleep and fatigue",true,2634,,,,,,,,,
611f222b87129e565f38fb31,forced_choice,14,376,"Organization",43,"Organization",false,"Troubleshooting",37,"Problem solving",true,"Organization",43,"Organization",false,"Troubleshooting",37,"Problem solving",true,25077,,,,,,,,,
611f222b87129e565f38fb31,forced_choice,15,376,"Troubleshooting",37,"Problem solving",true,"Response to criticism",39,"Learning from feedback and mistakes",true,"Response to criticism",39,"Learning from feedback and mistakes",true,"Troubleshooting",37,"Problem solving",true,1882,,,,,,,,,
611f222b87129e565f38fb31,forced_choice,16,376,"Intimidation",23,"Bullying",true,"Personal insight",76,"Self-awareness",true,"Personal insight",76,"Self-awareness",true,"Intimidation",23,"Bullying",true,3194,,,,,,,,,
611f222b87129e565f38fb31,forced_choice,17,376,"Collaboration with others",12,"Social cooperation",true,"Interpersonal ease",13,"Comfort in social situations",true,"Collaboration with others",12,"Social cooperation",true,"Interpersonal ease",13,"Comfort in social situations",true,3469,,,,,,,,,
611f222b87129e565f38fb31,forced_choice,18,376,"Goal mapping",42,"Planning",true,"Regulating conduct",0,"Managing behavior",true,"Goal mapping",42,"Planning",true,"Regulating conduct",0,"Managing behavior",true,38707,,,,,,,,,
611f222b87129e565f38fb31,forced_choice,19,376,"Interactions with instructors",11,"Relationships with teachers",true,"Intimidation",23,"Bullying",true,"Interactions with instructors",11,"Relationships with teachers",true,"Intimidation",23,"Bullying",true,46798,,,,,,,,,
611f222b87129e565f38fb31,forced_choice,20,376,"Introspection",78,"Self-reflection",true,"Interactions with instructors",11,"Relationships with teachers",true,"Interactions with instructors",11,"Relationships with teachers",true,"Introspection",78,"Self-reflection",true,2619,,,,,,,,,
611f222b87129e565f38fb31,forced_choice,21,376,"Exhaustion",85,"Sleep and fatigue",true,"Managing worries",86,"Stress management",true,"Managing worries",86,"Stress management",true,"Exhaustion",85,"Sleep and fatigue",true,6496,,,,,,,,,
611f222b87129e565f38fb31,forced_choice,22,376,"Response to criticism",39,"Learning from feedback and mistakes",true,"Interactions with instructors",11,"Relationships with teachers",true,"Interactions with instructors",11,"Relationships with teachers",true,"Response to criticism",39,"Learning from feedback and mistakes",true,16382,,,,,,,,,
611f222b87129e565f38fb31,forced_choice,23,376,"Sexual behavior",18,"Sexual behavior",false,"Introspection",78,"Self-reflection",true,"Introspection",78,"Self-reflection",true,"Sexual behavior",18,"Sexual behavior",false,7006,,,,,,,,,
611f222b87129e565f38fb31,forced_choice,24,376,"Choice selection",36,"Decision-making",true,"Controlling feelings",29,"Managing emotions",true,"Controlling feelings",29,"Managing emotions",true,"Choice selection",36,"Decision-making",true,12784,,,,,,,,,
611f222b87129e565f38fb31,forced_choice,25,376,"Interpersonal ease",13,"Comfort in social situations",true,"Personal insight",76,"Self-awareness",true,"Interpersonal ease",13,"Comfort in social situations",true,"Personal insight",76,"Self-awareness",true,76902,,,,,,,,,
611f222b87129e565f38fb31,forced_choice,26,376,"Recreation",19,"Play",true,"Self-kindness",79,"Self-acceptance",true,"Recreation",19,"Play",true,"Self-kindness",79,"Self-acceptance",true,5038,,,,,,,,,
611f222b87129e565f38fb31,forced_choice,27,376,"Collaboration with others",12,"Social cooperation",true,"Managing worries",86,"Stress management",true,"Collaboration with others",12,"Social cooperation",true,"Managing worries",86,"Stress management",true,2666,,,,,,,,,
611f222b87129e565f38fb31,forced_choice,28,376,"Controlling feelings",29,"Managing emotions",true,"Sexual behavior",18,"Sexual behavior",false,"Controlling feelings",29,"Managing emotions",true,"Sexual behavior",18,"Sexual behavior",false,1751,,,,,,,,,
611f222b87129e565f38fb31,forced_choice,29,376,"Personal incentive",54,"Motivation",true,"Intimidation",23,"Bullying",true,"Intimidation",23,"Bullying",true,"Personal incentive",54,"Motivation",true,17150,,,,,,,,,
611f222b87129e565f38fb31,forced_choice,30,376,"Sexual behavior",18,"Sexual behavior",false,"Exhaustion",85,"Sleep and fatigue",true,"Exhaustion",85,"Sleep and fatigue",true,"Sexual behavior",18,"Sexual behavior",false,10611,,,,,,,,,
611f222b87129e565f38fb31,forced_choice,31,376,"Response to criticism",39,"Learning from feedback and mistakes",true,"Personal insight",76,"Self-awareness",true,"Response to criticism",39,"Learning from feedback and mistakes",true,"Personal insight",76,"Self-awareness",true,5352,,,,,,,,,
611f222b87129e565f38fb31,forced_choice,32,376,"Cognitive control",34,"Managing thoughts",true,"Open mindset",58,"Openness",true,"Cognitive control",34,"Managing thoughts",true,"Open mindset",58,"Openness",true,1409,,,,,,,,,
611f222b87129e565f38fb31,forced_choice,33,376,"Organization",43,"Organization",false,"Intimidation",23,"Bullying",true,"Organization",43,"Organization",false,"Intimidation",23,"Bullying",true,3566,,,,,,,,,
611f222b87129e565f38fb31,forced_choice,34,376,"Ability to wait",62,"Patience",true,"Ingenuity",50,"Creativity and imagination",true,"Ability to wait",62,"Patience",true,"Ingenuity",50,"Creativity and imagination",true,1998,,,,,,,,,
611f222b87129e565f38fb31,forced_choice,35,376,"Recreation",19,"Play",true,"Open mindset",58,"Openness",true,"Open mindset",58,"Openness",true,"Recreation",19,"Play",true,1717,,,,,,,,,
611f222b87129e565f38fb31,forced_choice,36,376,"Interpersonal ease",13,"Comfort in social situations",true,"Cognitive control",34,"Managing thoughts",true,"Cognitive control",34,"Managing thoughts",true,"Interpersonal ease",13,"Comfort in social situations",true,5463,,,,,,,,,
611f222b87129e565f38fb31,forced_choice,37,376,"Controlling feelings",29,"Managing emotions",true,"Interactions with instructors",11,"Relationships with teachers",true,"Controlling feelings",29,"Managing emotions",true,"Interactions with instructors",11,"Relationships with teachers",true,22398,,,,,,,,,
611f222b87129e565f38fb31,forced_choice,38,376,"Sexual behavior",18,"Sexual behavior",false,"Collaboration with others",12,"Social cooperation",true,"Collaboration with others",12,"Social cooperation",true,"Sexual behavior",18,"Sexual behavior",false,3268,,,,,,,,,
611f222b87129e565f38fb31,forced_choice,39,376,"Troubleshooting",37,"Problem solving",true,"Controlling feelings",29,"Managing emotions",true,"Controlling feelings",29,"Managing emotions",true,"Troubleshooting",37,"Problem solving",true,1725,,,,,,,,,
611f222b87129e565f38fb31,forced_choice,40,376,"Self-kindness",79,"Self-acceptance",true,"Regulating conduct",0,"Managing behavior",true,"Regulating conduct",0,"Managing behavior",true,"Self-kindness",79,"Self-acceptance",true,4050,,,,,,,,,
611f222b87129e565f38fb31,forced_choice,41,376,"Introspection",78,"Self-reflection",true,"Personal insight",76,"Self-awareness",true,"Introspection",78,"Self-reflection",true,"Personal insight",76,"Self-awareness",true,7201,,,,,,,,,
611f222b87129e565f38fb31,forced_choice,42,376,"Skill development",38,"Learning new things",true,"Choice selection",36,"Decision-making",true,"Skill development",38,"Learning new things",true,"Choice selection",36,"Decision-making",true,1524,,,,,,,,,
611f222b87129e565f38fb31,forced_choice,43,376,"Choice selection",36,"Decision-making",true,"Sexual behavior",18,"Sexual behavior",false,"Choice selection",36,"Decision-making",true,"Sexual behavior",18,"Sexual behavior",false,3048,,,,,,,,,
611f222b87129e565f38fb31,forced_choice,44,376,"Choice selection",36,"Decision-making",true,"Organization",43,"Organization",false,"Organization",43,"Organization",false,"Choice selection",36,"Decision-making",true,1919,,,,,,,,,
611f222b87129e565f38fb31,forced_choice,45,376,"Self-kindness",79,"Self-acceptance",true,"Emotional disposition",32,"Mood",true,"Self-kindness",79,"Self-acceptance",true,"Emotional disposition",32,"Mood",true,3549,,,,,,,,,
611f222b87129e565f38fb31,forced_choice,46,376,"Goal mapping",42,"Planning",true,"Schedule planning",44,"Time management",true,"Schedule planning",44,"Time management",true,"Goal mapping",42,"Planning",true,29679,,,,,,,,,
611f222b87129e565f38fb31,forced_choice,47,376,"Emotional disposition",32,"Mood",true,"Ingenuity",50,"Creativity and imagination",true,"Emotional disposition",32,"Mood",true,"Ingenuity",50,"Creativity and imagination",true,2080,,,,,,,,,
611f222b87129e565f38fb31,forced_choice,48,376,"Collaboration with others",12,"Social cooperation",true,"Ability to wait",62,"Patience",true,"Collaboration with others",12,"Social cooperation",true,"Ability to wait",62,"Patience",true,2127,,,,,,,,,
611f222b87129e565f38fb31,forced_choice,49,376,"Introspection",78,"Self-reflection",true,"Intimidation",23,"Bullying",true,"Introspection",78,"Self-reflection",true,"Intimidation",23,"Bullying",true,1748,,,,,,,,,
611f222b87129e565f38fb31,forced_choice,50,376,"Ability to wait",62,"Patience",true,"Response to criticism",39,"Learning from feedback and mistakes",true,"Response to criticism",39,"Learning from feedback and mistakes",true,"Ability to wait",62,"Patience",true,3231,,,,,,,,,
611f222b87129e565f38fb31,forced_choice,51,376,"Exhaustion",85,"Sleep and fatigue",true,"Open mindset",58,"Openness",true,"Open mindset",58,"Openness",true,"Exhaustion",85,"Sleep and fatigue",true,1732,,,,,,,,,
611f222b87129e565f38fb31,forced_choice,52,376,"Skill development",38,"Learning new things",true,"Emotional disposition",32,"Mood",true,"Skill development",38,"Learning new things",true,"Emotional disposition",32,"Mood",true,1631,,,,,,,,,
611f222b87129e565f38fb31,forced_choice,53,376,"Collaboration with others",12,"Social cooperation",true,"Ingenuity",50,"Creativity and imagination",true,"Ingenuity",50,"Creativity and imagination",true,"Collaboration with others",12,"Social cooperation",true,1951,,,,,,,,,
611f222b87129e565f38fb31,forced_choice,54,376,"Response to criticism",39,"Learning from feedback and mistakes",true,"Choice selection",36,"Decision-making",true,"Response to criticism",39,"Learning from feedback and mistakes",true,"Choice selection",36,"Decision-making",true,3733,,,,,,,,,
611f222b87129e565f38fb31,attention_check,55,,,,,,,,,,,,,,,,,,5483,"Social skills","Social skills",true,,,,,,
611f222b87129e565f38fb31,forced_choice,55,376,"Intimidation",23,"Bullying",true,"Cognitive control",34,"Managing thoughts",true,"Cognitive control",34,"Managing thoughts",true,"Intimidation",23,"Bullying",true,19962,,,,,,,,,
611f222b87129e565f38fb31,forced_choice,56,376,"Open mindset",58,"Openness",true,"Interpersonal ease",13,"Comfort in social situations",true,"Open mindset",58,"Openness",true,"Interpersonal ease",13,"Comfort in social situations",true,3649,,,,,,,,,
611f222b87129e565f38fb31,forced_choice,57,376,"Recreation",19,"Play",true,"Collaboration with others",12,"Social cooperation",true,"Collaboration with others",12,"Social cooperation",true,"Recreation",19,"Play",true,3499,,,,,,,,,
611f222b87129e565f38fb31,forced_choice,58,376,"Goal mapping",42,"Planning",true,"Response to criticism",39,"Learning from feedback and mistakes",true,"Response to criticism",39,"Learning from feedback and mistakes",true,"Goal mapping",42,"Planning",true,1628,,,,,,,,,
611f222b87129e565f38fb31,forced_choice,59,376,"Emotional disposition",32,"Mood",true,"Personal incentive",54,"Motivation",true,"Emotional disposition",32,"Mood",true,"Personal incentive",54,"Motivation",true,3052,,,,,,,,,
611f222b87129e565f38fb31,forced_choice,60,376,"Regulating conduct",0,"Managing behavior",true,"Troubleshooting",37,"Problem solving",true,"Troubleshooting",37,"Problem solving",true,"Regulating conduct",0,"Managing behavior",true,2064,,,,,,,,,
611f222b87129e565f38fb31,forced_choice,61,376,"Recreation",19,"Play",true,"Sexual behavior",18,"Sexual behavior",false,"Recreation",19,"Play",true,"Sexual behavior",18,"Sexual behavior",false,2879,,,,,,,,,
611f222b87129e565f38fb31,forced_choice,62,376,"Managing worries",86,"Stress management",true,"Response to criticism",39,"Learning from feedback and mistakes",true,"Response to criticism",39,"Learning from feedback and mistakes",true,"Managing worries",86,"Stress management",true,3232,,,,,,,,,
611f222b87129e565f38fb31,forced_choice,63,376,"Personal incentive",54,"Motivation",true,"Managing worries",86,"Stress management",true,"Managing worries",86,"Stress management",true,"Personal incentive",54,"Motivation",true,14077,,,,,,,,,
611f222b87129e565f38fb31,forced_choice,64,376,"Choice selection",36,"Decision-making",true,"Managing worries",86,"Stress management",true,"Managing worries",86,"Stress management",true,"Choice selection",36,"Decision-making",true,13233,,,,,,,,,
611f222b87129e565f38fb31,forced_choice,65,376,"Organization",43,"Organization",false,"Cognitive control",34,"Managing thoughts",true,"Organization",43,"Organization",false,"Cognitive control",34,"Managing thoughts",true,5431,,,,,,,,,
611f222b87129e565f38fb31,forced_choice,66,376,"Emotional disposition",32,"Mood",true,"Open mindset",58,"Openness",true,"Open mindset",58,"Openness",true,"Emotional disposition",32,"Mood",true,4547,,,,,,,,,
611f222b87129e565f38fb31,forced_choice,67,376,"Goal mapping",42,"Planning",true,"Managing worries",86,"Stress management",true,"Managing worries",86,"Stress management",true,"Goal mapping",42,"Planning",true,2231,,,,,,,,,
611f222b87129e565f38fb31,forced_choice,68,376,"Exhaustion",85,"Sleep and fatigue",true,"Ingenuity",50,"Creativity and imagination",true,"Ingenuity",50,"Creativity and imagination",true,"Exhaustion",85,"Sleep and fatigue",true,1466,,,,,,,,,
611f222b87129e565f38fb31,forced_choice,69,376,"Recreation",19,"Play",true,"Goal mapping",42,"Planning",true,"Recreation",19,"Play",true,"Goal mapping",42,"Planning",true,1678,,,,,,,,,
611f222b87129e565f38fb31,forced_choice,70,376,"Goal mapping",42,"Planning",true,"Intimidation",23,"Bullying",true,"Goal mapping",42,"Planning",true,"Intimidation",23,"Bullying",true,1845,,,,,,,,,
611f222b87129e565f38fb31,forced_choice,71,376,"Emotional disposition",32,"Mood",true,"Personal insight",76,"Self-awareness",true,"Personal insight",76,"Self-awareness",true,"Emotional disposition",32,"Mood",true,2388,,,,,,,,,
611f222b87129e565f38fb31,forced_choice,72,376,"Organization",43,"Organization",false,"Open mindset",58,"Openness",true,"Open mindset",58,"Openness",true,"Organization",43,"Organization",false,2092,,,,,,,,,
611f222b87129e565f38fb31,forced_choice,73,376,"Personal insight",76,"Self-awareness",true,"Regulating conduct",0,"Managing behavior",true,"Regulating conduct",0,"Managing behavior",true,"Personal insight",76,"Self-awareness",true,51464,,,,,,,,,
611f222b87129e565f38fb31,forced_choice,74,376,"Personal incentive",54,"Motivation",true,"Controlling feelings",29,"Managing emotions",true,"Controlling feelings",29,"Managing emotions",true,"Personal incentive",54,"Motivation",true,5215,,,,,,,,,
611f222b87129e565f38fb31,forced_choice,75,376,"Skill development",38,"Learning new things",true,"Organization",43,"Organization",false,"Skill development",38,"Learning new things",true,"Organization",43,"Organization",false,5887,,,,,,,,,
611f222b87129e565f38fb31,forced_choice,76,376,"Exhaustion",85,"Sleep and fatigue",true,"Goal mapping",42,"Planning",true,"Goal mapping",42,"Planning",true,"Exhaustion",85,"Sleep and fatigue",true,5032,,,,,,,,,
611f222b87129e565f38fb31,forced_choice,77,376,"Exhaustion",85,"Sleep and fatigue",true,"Self-kindness",79,"Self-acceptance",true,"Exhaustion",85,"Sleep and fatigue",true,"Self-kindness",79,"Self-acceptance",true,3612,,,,,,,,,
611f222b87129e565f38fb31,forced_choice,78,376,"Ability to wait",62,"Patience",true,"Self-kindness",79,"Self-acceptance",true,"Ability to wait",62,"Patience",true,"Self-kindness",79,"Self-acceptance",true,7463,,,,,,,,,
611f222b87129e565f38fb31,forced_choice,79,376,"Interpersonal ease",13,"Comfort in social situations",true,"Personal incentive",54,"Motivation",true,"Interpersonal ease",13,"Comfort in social situations",true,"Personal incentive",54,"Motivation",true,3682,,,,,,,,,
611f222b87129e565f38fb31,forced_choice,80,376,"Cognitive control",34,"Managing thoughts",true,"Personal insight",76,"Self-awareness",true,"Cognitive control",34,"Managing thoughts",true,"Personal insight",76,"Self-awareness",true,2262,,,,,,,,,
611f222b87129e565f38fb31,forced_choice,81,376,"Emotional disposition",32,"Mood",true,"Collaboration with others",12,"Social cooperation",true,"Collaboration with others",12,"Social cooperation",true,"Emotional disposition",32,"Mood",true,2389,,,,,,,,,
611f222b87129e565f38fb31,forced_choice,82,376,"Personal incentive",54,"Motivation",true,"Collaboration with others",12,"Social cooperation",true,"Collaboration with others",12,"Social cooperation",true,"Personal incentive",54,"Motivation",true,7092,,,,,,,,,
611f222b87129e565f38fb31,forced_choice,83,376,"Exhaustion",85,"Sleep and fatigue",true,"Ability to wait",62,"Patience",true,"Ability to wait",62,"Patience",true,"Exhaustion",85,"Sleep and fatigue",true,6048,,,,,,,,,
611f222b87129e565f38fb31,forced_choice,84,376,"Skill development",38,"Learning new things",true,"Open mindset",58,"Openness",true,"Skill development",38,"Learning new things",true,"Open mindset",58,"Openness",true,1832,,,,,,,,,
611f222b87129e565f38fb31,forced_choice,85,376,"Recreation",19,"Play",true,"Interactions with instructors",11,"Relationships with teachers",true,"Interactions with instructors",11,"Relationships with teachers",true,"Recreation",19,"Play",true,7648,,,,,,,,,
611f222b87129e565f38fb31,forced_choice,86,376,"Sexual behavior",18,"Sexual behavior",false,"Personal incentive",54,"Motivation",true,"Sexual behavior",18,"Sexual behavior",false,"Personal incentive",54,"Motivation",true,3349,,,,,,,,,
611f222b87129e565f38fb31,forced_choice,87,376,"Interpersonal ease",13,"Comfort in social situations",true,"Controlling feelings",29,"Managing emotions",true,"Controlling feelings",29,"Managing emotions",true,"Interpersonal ease",13,"Comfort in social situations",true,3764,,,,,,,,,
611f222b87129e565f38fb31,forced_choice,88,376,"Troubleshooting",37,"Problem solving",true,"Choice selection",36,"Decision-making",true,"Troubleshooting",37,"Problem solving",true,"Choice selection",36,"Decision-making",true,3518,,,,,,,,,
611f222b87129e565f38fb31,forced_choice,89,376,"Ability to wait",62,"Patience",true,"Organization",43,"Organization",false,"Ability to wait",62,"Patience",true,"Organization",43,"Organization",false,3446,,,,,,,,,
611f222b87129e565f38fb31,forced_choice,90,376,"Self-kindness",79,"Self-acceptance",true,"Managing worries",86,"Stress management",true,"Self-kindness",79,"Self-acceptance",true,"Managing worries",86,"Stress management",true,8465,,,,,,,,,
611f222b87129e565f38fb31,forced_choice,91,376,"Managing worries",86,"Stress management",true,"Sexual behavior",18,"Sexual behavior",false,"Sexual behavior",18,"Sexual behavior",false,"Managing worries",86,"Stress management",true,56904,,,,,,,,,
611f222b87129e565f38fb31,forced_choice,92,376,"Personal incentive",54,"Motivation",true,"Introspection",78,"Self-reflection",true,"Personal incentive",54,"Motivation",true,"Introspection",78,"Self-reflection",true,4959,,,,,,,,,
611f222b87129e565f38fb31,forced_choice,93,376,"Recreation",19,"Play",true,"Introspection",78,"Self-reflection",true,"Recreation",19,"Play",true,"Introspection",78,"Self-reflection",true,2612,,,,,,,,,
611f222b87129e565f38fb31,forced_choice,94,376,"Sexual behavior",18,"Sexual behavior",false,"Self-kindness",79,"Self-acceptance",true,"Self-kindness",79,"Self-acceptance",true,"Sexual behavior",18,"Sexual behavior",false,2556,,,,,,,,,
611f222b87129e565f38fb31,forced_choice,95,376,"Response to criticism",39,"Learning from feedback and mistakes",true,"Organization",43,"Organization",false,"Response to criticism",39,"Learning from feedback and mistakes",true,"Organization",43,"Organization",false,18531,,,,,,,,,
611f222b87129e565f38fb31,forced_choice,96,376,"Introspection",78,"Self-reflection",true,"Response to criticism",39,"Learning from feedback and mistakes",true,"Response to criticism",39,"Learning from feedback and mistakes",true,"Introspection",78,"Self-reflection",true,1964,,,,,,,,,
611f222b87129e565f38fb31,forced_choice,97,376,"Personal incentive",54,"Motivation",true,"Interactions with instructors",11,"Relationships with teachers",true,"Interactions with instructors",11,"Relationships with teachers",true,"Personal incentive",54,"Motivation",true,6929,,,,,,,,,
611f222b87129e565f38fb31,forced_choice,98,376,"Personal insight",76,"Self-awareness",true,"Exhaustion",85,"Sleep and fatigue",true,"Personal insight",76,"Self-awareness",true,"Exhaustion",85,"Sleep and fatigue",true,10166,,,,,,,,,
611f222b87129e565f38fb31,forced_choice,99,376,"Open mindset",58,"Openness",true,"Response to criticism",39,"Learning from feedback and mistakes",true,"Response to criticism",39,"Learning from feedback and mistakes",true,"Open mindset",58,"Openness",true,2335,,,,,,,,,
611f222b87129e565f38fb31,forced_choice,100,376,"Exhaustion",85,"Sleep and fatigue",true,"Skill development",38,"Learning new things",true,"Skill development",38,"Learning new things",true,"Exhaustion",85,"Sleep and fatigue",true,2225,,,,,,,,,
611f222b87129e565f38fb31,forced_choice,101,376,"Skill development",38,"Learning new things",true,"Intimidation",23,"Bullying",true,"Skill development",38,"Learning new things",true,"Intimidation",23,"Bullying",true,1717,,,,,,,,,
611f222b87129e565f38fb31,forced_choice,102,376,"Intimidation",23,"Bullying",true,"Ability to wait",62,"Patience",true,"Intimidation",23,"Bullying",true,"Ability to wait",62,"Patience",true,6910,,,,,,,,,
611f222b87129e565f38fb31,forced_choice,103,376,"Regulating conduct",0,"Managing behavior",true,"Skill development",38,"Learning new things",true,"Skill development",38,"Learning new things",true,"Regulating conduct",0,"Managing behavior",true,1956,,,,,,,,,
611f222b87129e565f38fb31,forced_choice,104,376,"Cognitive control",34,"Managing thoughts",true,"Introspection",78,"Self-reflection",true,"Cognitive control",34,"Managing thoughts",true,"Introspection",78,"Self-reflection",true,2328,,,,,,,,,
611f222b87129e565f38fb31,forced_choice,105,376,"Introspection",78,"Self-reflection",true,"Choice selection",36,"Decision-making",true,"Introspection",78,"Self-reflection",true,"Choice selection",36,"Decision-making",true,9928,,,,,,,,,
611f222b87129e565f38fb31,forced_choice,106,376,"Troubleshooting",37,"Problem solving",true,"Goal mapping",42,"Planning",true,"Troubleshooting",37,"Problem solving",true,"Goal mapping",42,"Planning",true,3480,,,,,,,,,
611f222b87129e565f38fb31,forced_choice,107,376,"Personal insight",76,"Self-awareness",true,"Recreation",19,"Play",true,"Recreation",19,"Play",true,"Personal insight",76,"Self-awareness",true,2205,,,,,,,,,
611f222b87129e565f38fb31,forced_choice,108,376,"Intimidation",23,"Bullying",true,"Regulating conduct",0,"Managing behavior",true,"Regulating conduct",0,"Managing behavior",true,"Intimidation",23,"Bullying",true,5160,,,,,,,,,
611f222b87129e565f38fb31,forced_choice,109,376,"Controlling feelings",29,"Managing emotions",true,"Personal insight",76,"Self-awareness",true,"Controlling feelings",29,"Managing emotions",true,"Personal insight",76,"Self-awareness",true,1600,,,,,,,,,
611f222b87129e565f38fb31,attention_check,111,,,,,,,,,,,,,,,,,,5686,"Managing emotions","Managing emotions",true,,,,,,
611f222b87129e565f38fb31,forced_choice,110,376,"Personal incentive",54,"Motivation",true,"Regulating conduct",0,"Managing behavior",true,"Regulating conduct",0,"Managing behavior",true,"Personal incentive",54,"Motivation",true,9444,,,,,,,,,
611f222b87129e565f38fb31,forced_choice,111,376,"Self-kindness",79,"Self-acceptance",true,"Controlling feelings",29,"Managing emotions",true,"Controlling feelings",29,"Managing emotions",true,"Self-kindness",79,"Self-acceptance",true,6664,,,,,,,,,
611f222b87129e565f38fb31,forced_choice,112,376,"Managing worries",86,"Stress management",true,"Organization",43,"Organization",false,"Managing worries",86,"Stress management",true,"Organization",43,"Organization",false,3386,,,,,,,,,
611f222b87129e565f38fb31,forced_choice,113,376,"Troubleshooting",37,"Problem solving",true,"Interpersonal ease",13,"Comfort in social situations",true,"Troubleshooting",37,"Problem solving",true,"Interpersonal ease",13,"Comfort in social situations",true,1926,,,,,,,,,
611f222b87129e565f38fb31,forced_choice,114,376,"Ingenuity",50,"Creativity and imagination",true,"Choice selection",36,"Decision-making",true,"Ingenuity",50,"Creativity and imagination",true,"Choice selection",36,"Decision-making",true,2666,,,,,,,,,
611f222b87129e565f38fb31,forced_choice,115,376,"Ability to wait",62,"Patience",true,"Cognitive control",34,"Managing thoughts",true,"Cognitive control",34,"Managing thoughts",true,"Ability to wait",62,"Patience",true,1551,,,,,,,,,
611f222b87129e565f38fb31,forced_choice,116,376,"Intimidation",23,"Bullying",true,"Sexual behavior",18,"Sexual behavior",false,"Sexual behavior",18,"Sexual behavior",false,"Intimidation",23,"Bullying",true,2028,,,,,,,,,
611f222b87129e565f38fb31,forced_choice,117,376,"Recreation",19,"Play",true,"Cognitive control",34,"Managing thoughts",true,"Cognitive control",34,"Managing thoughts",true,"Recreation",19,"Play",true,4051,,,,,,,,,
611f222b87129e565f38fb31,forced_choice,118,376,"Sexual behavior",18,"Sexual behavior",false,"Goal mapping",42,"Planning",true,"Sexual behavior",18,"Sexual behavior",false,"Goal mapping",42,"Planning",true,1846,,,,,,,,,
611f222b87129e565f38fb31,forced_choice,119,376,"Personal incentive",54,"Motivation",true,"Organization",43,"Organization",false,"Organization",43,"Organization",false,"Personal incentive",54,"Motivation",true,13303,,,,,,,,,
611f222b87129e565f38fb31,forced_choice,120,376,"Collaboration with others",12,"Social cooperation",true,"Organization",43,"Organization",false,"Collaboration with others",12,"Social cooperation",true,"Organization",43,"Organization",false,1649,,,,,,,,,
611f222b87129e565f38fb31,forced_choice,121,376,"Interpersonal ease",13,"Comfort in social situations",true,"Recreation",19,"Play",true,"Recreation",19,"Play",true,"Interpersonal ease",13,"Comfort in social situations",true,1679,,,,,,,,,
611f222b87129e565f38fb31,forced_choice,122,376,"Intimidation",23,"Bullying",true,"Managing worries",86,"Stress management",true,"Managing worries",86,"Stress management",true,"Intimidation",23,"Bullying",true,2129,,,,,,,,,
611f222b87129e565f38fb31,forced_choice,123,376,"Interpersonal ease",13,"Comfort in social situations",true,"Emotional disposition",32,"Mood",true,"Emotional disposition",32,"Mood",true,"Interpersonal ease",13,"Comfort in social situations",true,8814,,,,,,,,,
611f222b87129e565f38fb31,forced_choice,124,376,"Managing worries",86,"Stress management",true,"Interpersonal ease",13,"Comfort in social situations",true,"Managing worries",86,"Stress management",true,"Interpersonal ease",13,"Comfort in social situations",true,5868,,,,,,,,,
611f222b87129e565f38fb31,forced_choice,125,376,"Organization",43,"Organization",false,"Schedule planning",44,"Time management",true,"Schedule planning",44,"Time management",true,"Organization",43,"Organization",false,2018,,,,,,,,,
611f222b87129e565f38fb31,forced_choice,126,376,"Self-kindness",79,"Self-acceptance",true,"Response to criticism",39,"Learning from feedback and mistakes",true,"Response to criticism",39,"Learning from feedback and mistakes",true,"Self-kindness",79,"Self-acceptance",true,2978,,,,,,,,,
611f222b87129e565f38fb31,forced_choice,127,376,"Schedule planning",44,"Time management",true,"Interpersonal ease",13,"Comfort in social situations",true,"Schedule planning",44,"Time management",true,"Interpersonal ease",13,"Comfort in social situations",true,2368,,,,,,,,,
611f222b87129e565f38fb31,forced_choice,128,376,"Schedule planning",44,"Time management",true,"Intimidation",23,"Bullying",true,"Schedule planning",44,"Time management",true,"Intimidation",23,"Bullying",true,1959,,,,,,,,,
611f222b87129e565f38fb31,forced_choice,129,376,"Cognitive control",34,"Managing thoughts",true,"Self-kindness",79,"Self-acceptance",true,"Cognitive control",34,"Managing thoughts",true,"Self-kindness",79,"Self-acceptance",true,2829,,,,,,,,,
611f222b87129e565f38fb31,forced_choice,130,376,"Schedule planning",44,"Time management",true,"Ingenuity",50,"Creativity and imagination",true,"Ingenuity",50,"Creativity and imagination",true,"Schedule planning",44,"Time management",true,5066,,,,,,,,,
611f222b87129e565f38fb31,forced_choice,131,376,"Interactions with instructors",11,"Relationships with teachers",true,"Sexual behavior",18,"Sexual behavior",false,"Interactions with instructors",11,"Relationships with teachers",true,"Sexual behavior",18,"Sexual behavior",false,2321,,,,,,,,,
611f222b87129e565f38fb31,forced_choice,132,376,"Interactions with instructors",11,"Relationships with teachers",true,"Choice selection",36,"Decision-making",true,"Interactions with instructors",11,"Relationships with teachers",true,"Choice selection",36,"Decision-making",true,1809,,,,,,,,,
611f222b87129e565f38fb31,forced_choice,133,376,"Sexual behavior",18,"Sexual behavior",false,"Skill development",38,"Learning new things",true,"Skill development",38,"Learning new things",true,"Sexual behavior",18,"Sexual behavior",false,1436,,,,,,,,,
611f222b87129e565f38fb31,forced_choice,134,376,"Ingenuity",50,"Creativity and imagination",true,"Regulating conduct",0,"Managing behavior",true,"Regulating conduct",0,"Managing behavior",true,"Ingenuity",50,"Creativity and imagination",true,3444,,,,,,,,,
611f222b87129e565f38fb31,forced_choice,135,376,"Emotional disposition",32,"Mood",true,"Regulating conduct",0,"Managing behavior",true,"Emotional disposition",32,"Mood",true,"Regulating conduct",0,"Managing behavior",true,2703,,,,,,,,,
611f222b87129e565f38fb31,forced_choice,136,376,"Ingenuity",50,"Creativity and imagination",true,"Organization",43,"Organization",false,"Ingenuity",50,"Creativity and imagination",true,"Organization",43,"Organization",false,2913,,,,,,,,,
611f222b87129e565f38fb31,forced_choice,137,376,"Troubleshooting",37,"Problem solving",true,"Personal incentive",54,"Motivation",true,"Personal incentive",54,"Motivation",true,"Troubleshooting",37,"Problem solving",true,3168,,,,,,,,,
611f222b87129e565f38fb31,forced_choice,138,376,"Schedule planning",44,"Time management",true,"Interactions with instructors",11,"Relationships with teachers",true,"Interactions with instructors",11,"Relationships with teachers",true,"Schedule planning",44,"Time management",true,6179,,,,,,,,,
611f222b87129e565f38fb31,forced_choice,139,376,"Introspection",78,"Self-reflection",true,"Exhaustion",85,"Sleep and fatigue",true,"Introspection",78,"Self-reflection",true,"Exhaustion",85,"Sleep and fatigue",true,4468,,,,,,,,,
611f222b87129e565f38fb31,forced_choice,140,376,"Ingenuity",50,"Creativity and imagination",true,"Troubleshooting",37,"Problem solving",true,"Troubleshooting",37,"Problem solving",true,"Ingenuity",50,"Creativity and imagination",true,4416,,,,,,,,,
611f222b87129e565f38fb31,forced_choice,141,376,"Troubleshooting",37,"Problem solving",true,"Ability to wait",62,"Patience",true,"Ability to wait",62,"Patience",true,"Troubleshooting",37,"Problem solving",true,2294,,,,,,,,,
611f222b87129e565f38fb31,forced_choice,142,376,"Recreation",19,"Play",true,"Ingenuity",50,"Creativity and imagination",true,"Recreation",19,"Play",true,"Ingenuity",50,"Creativity and imagination",true,1552,,,,,,,,,
611f222b87129e565f38fb31,forced_choice,143,376,"Introspection",78,"Self-reflection",true,"Schedule planning",44,"Time management",true,"Schedule planning",44,"Time management",true,"Introspection",78,"Self-reflection",true,1951,,,,,,,,,
611f222b87129e565f38fb31,forced_choice,144,376,"Introspection",78,"Self-reflection",true,"Controlling feelings",29,"Managing emotions",true,"Controlling feelings",29,"Managing emotions",true,"Introspection",78,"Self-reflection",true,1942,,,,,,,,,
611f222b87129e565f38fb31,forced_choice,145,376,"Interpersonal ease",13,"Comfort in social situations",true,"Self-kindness",79,"Self-acceptance",true,"Self-kindness",79,"Self-acceptance",true,"Interpersonal ease",13,"Comfort in social situations",true,3083,,,,,,,,,
611f222b87129e565f38fb31,forced_choice,146,376,"Personal insight",76,"Self-awareness",true,"Sexual behavior",18,"Sexual behavior",false,"Personal insight",76,"Self-awareness",true,"Sexual behavior",18,"Sexual behavior",false,2450,,,,,,,,,
611f222b87129e565f38fb31,forced_choice,147,376,"Interactions with instructors",11,"Relationships with teachers",true,"Emotional disposition",32,"Mood",true,"Interactions with instructors",11,"Relationships with teachers",true,"Emotional disposition",32,"Mood",true,2712,,,,,,,,,
611f222b87129e565f38fb31,forced_choice,148,376,"Self-kindness",79,"Self-acceptance",true,"Collaboration with others",12,"Social cooperation",true,"Collaboration with others",12,"Social cooperation",true,"Self-kindness",79,"Self-acceptance",true,2102,,,,,,,,,
611f222b87129e565f38fb31,forced_choice,149,376,"Recreation",19,"Play",true,"Schedule planning",44,"Time management",true,"Schedule planning",44,"Time management",true,"Recreation",19,"Play",true,2113,,,,,,,,,
611f222b87129e565f38fb31,forced_choice,150,376,"Introspection",78,"Self-reflection",true,"Skill development",38,"Learning new things",true,"Skill development",38,"Learning new things",true,"Introspection",78,"Self-reflection",true,1114,,,,,,,,,
611f222b87129e565f38fb31,forced_choice,151,376,"Regulating conduct",0,"Managing behavior",true,"Cognitive control",34,"Managing thoughts",true,"Cognitive control",34,"Managing thoughts",true,"Regulating conduct",0,"Managing behavior",true,2865,,,,,,,,,
611f222b87129e565f38fb31,forced_choice,152,376,"Ingenuity",50,"Creativity and imagination",true,"Response to criticism",39,"Learning from feedback and mistakes",true,"Response to criticism",39,"Learning from feedback and mistakes",true,"Ingenuity",50,"Creativity and imagination",true,2017,,,,,,,,,
611f222b87129e565f38fb31,forced_choice,153,376,"Controlling feelings",29,"Managing emotions",true,"Schedule planning",44,"Time management",true,"Controlling feelings",29,"Managing emotions",true,"Schedule planning",44,"Time management",true,2001,,,,,,,,,
611f222b87129e565f38fb31,forced_choice,154,376,"Troubleshooting",37,"Problem solving",true,"Sexual behavior",18,"Sexual behavior",false,"Troubleshooting",37,"Problem solving",true,"Sexual behavior",18,"Sexual behavior",false,1662,,,,,,,,,
611f222b87129e565f38fb31,forced_choice,155,376,"Personal incentive",54,"Motivation",true,"Ability to wait",62,"Patience",true,"Ability to wait",62,"Patience",true,"Personal incentive",54,"Motivation",true,1919,,,,,,,,,
611f222b87129e565f38fb31,forced_choice,156,376,"Response to criticism",39,"Learning from feedback and mistakes",true,"Collaboration with others",12,"Social cooperation",true,"Response to criticism",39,"Learning from feedback and mistakes",true,"Collaboration with others",12,"Social cooperation",true,9883,,,,,,,,,
611f222b87129e565f38fb31,forced_choice,157,376,"Open mindset",58,"Openness",true,"Introspection",78,"Self-reflection",true,"Open mindset",58,"Openness",true,"Introspection",78,"Self-reflection",true,4478,,,,,,,,,
611f222b87129e565f38fb31,forced_choice,158,376,"Choice selection",36,"Decision-making",true,"Self-kindness",79,"Self-acceptance",true,"Self-kindness",79,"Self-acceptance",true,"Choice selection",36,"Decision-making",true,7102,,,,,,,,,
611f222b87129e565f38fb31,forced_choice,159,376,"Schedule planning",44,"Time management",true,"Choice selection",36,"Decision-making",true,"Schedule planning",44,"Time management",true,"Choice selection",36,"Decision-making",true,3015,,,,,,,,,
611f222b87129e565f38fb31,forced_choice,160,376,"Troubleshooting",37,"Problem solving",true,"Collaboration with others",12,"Social cooperation",true,"Collaboration with others",12,"Social cooperation",true,"Troubleshooting",37,"Problem solving",true,5745,,,,,,,,,
611f222b87129e565f38fb31,forced_choice,161,376,"Managing worries",86,"Stress management",true,"Ingenuity",50,"Creativity and imagination",true,"Managing worries",86,"Stress management",true,"Ingenuity",50,"Creativity and imagination",true,11167,,,,,,,,,
611f222b87129e565f38fb31,forced_choice,162,376,"Ingenuity",50,"Creativity and imagination",true,"Personal insight",76,"Self-awareness",true,"Ingenuity",50,"Creativity and imagination",true,"Personal insight",76,"Self-awareness",true,21376,,,,,,,,,
611f222b87129e565f38fb31,forced_choice,163,376,"Controlling feelings",29,"Managing emotions",true,"Managing worries",86,"Stress management",true,"Controlling feelings",29,"Managing emotions",true,"Managing worries",86,"Stress management",true,25665,,,,,,,,,
611f222b87129e565f38fb31,forced_choice,164,376,"Recreation",19,"Play",true,"Exhaustion",85,"Sleep and fatigue",true,"Recreation",19,"Play",true,"Exhaustion",85,"Sleep and fatigue",true,2695,,,,,,,,,
611f222b87129e565f38fb31,attention_check,167,,,,,,,,,,,,,,,,,,4749,"Managing emotions","Managing emotions",true,,,,,,
611f222b87129e565f38fb31,forced_choice,165,376,"Skill development",38,"Learning new things",true,"Interpersonal ease",13,"Comfort in social situations",true,"Skill development",38,"Learning new things",true,"Interpersonal ease",13,"Comfort in social situations",true,4967,,,,,,,,,
611f222b87129e565f38fb31,forced_choice,166,376,"Intimidation",23,"Bullying",true,"Choice selection",36,"Decision-making",true,"Intimidation",23,"Bullying",true,"Choice selection",36,"Decision-making",true,3243,,,,,,,,,
611f222b87129e565f38fb31,forced_choice,167,376,"Intimidation",23,"Bullying",true,"Emotional disposition",32,"Mood",true,"Emotional disposition",32,"Mood",true,"Intimidation",23,"Bullying",true,3288,,,,,,,,,
611f222b87129e565f38fb31,forced_choice,168,376,"Emotional disposition",32,"Mood",true,"Exhaustion",85,"Sleep and fatigue",true,"Emotional disposition",32,"Mood",true,"Exhaustion",85,"Sleep and fatigue",true,2833,,,,,,,,,
611f222b87129e565f38fb31,forced_choice,169,376,"Skill development",38,"Learning new things",true,"Recreation",19,"Play",true,"Skill development",38,"Learning new things",true,"Recreation",19,"Play",true,1325,,,,,,,,,
611f222b87129e565f38fb31,forced_choice,170,376,"Ingenuity",50,"Creativity and imagination",true,"Intimidation",23,"Bullying",true,"Ingenuity",50,"Creativity and imagination",true,"Intimidation",23,"Bullying",true,14500,,,,,,,,,
611f222b87129e565f38fb31,forced_choice,171,376,"Managing worries",86,"Stress management",true,"Ability to wait",62,"Patience",true,"Ability to wait",62,"Patience",true,"Managing worries",86,"Stress management",true,3687,,,,,,,,,
611f222b87129e565f38fb31,forced_choice,172,376,"Interactions with instructors",11,"Relationships with teachers",true,"Ability to wait",62,"Patience",true,"Interactions with instructors",11,"Relationships with teachers",true,"Ability to wait",62,"Patience",true,4230,,,,,,,,,
611f222b87129e565f38fb31,forced_choice,173,376,"Goal mapping",42,"Planning",true,"Ability to wait",62,"Patience",true,"Goal mapping",42,"Planning",true,"Ability to wait",62,"Patience",true,3778,,,,,,,,,
611f222b87129e565f38fb31,forced_choice,174,376,"Goal mapping",42,"Planning",true,"Interpersonal ease",13,"Comfort in social situations",true,"Interpersonal ease",13,"Comfort in social situations",true,"Goal mapping",42,"Planning",true,3403,,,,,,,,,
611f222b87129e565f38fb31,forced_choice,175,376,"Interpersonal ease",13,"Comfort in social situations",true,"Ingenuity",50,"Creativity and imagination",true,"Ingenuity",50,"Creativity and imagination",true,"Interpersonal ease",13,"Comfort in social situations",true,5444,,,,,,,,,
611f222b87129e565f38fb31,forced_choice,176,376,"Organization",43,"Organization",false,"Recreation",19,"Play",true,"Recreation",19,"Play",true,"Organization",43,"Organization",false,2585,,,,,,,,,
611f222b87129e565f38fb31,forced_choice,177,376,"Collaboration with others",12,"Social cooperation",true,"Intimidation",23,"Bullying",true,"Collaboration with others",12,"Social cooperation",true,"Intimidation",23,"Bullying",true,2149,,,,,,,,,
611f222b87129e565f38fb31,forced_choice,178,376,"Exhaustion",85,"Sleep and fatigue",true,"Organization",43,"Organization",false,"Organization",43,"Organization",false,"Exhaustion",85,"Sleep and fatigue",true,5402,,,,,,,,,
611f222b87129e565f38fb31,forced_choice,179,376,"Troubleshooting",37,"Problem solving",true,"Intimidation",23,"Bullying",true,"Troubleshooting",37,"Problem solving",true,"Intimidation",23,"Bullying",true,7516,,,,,,,,,
611f222b87129e565f38fb31,forced_choice,180,376,"Skill development",38,"Learning new things",true,"Ability to wait",62,"Patience",true,"Skill development",38,"Learning new things",true,"Ability to wait",62,"Patience",true,5310,,,,,,,,,
611f222b87129e565f38fb31,forced_choice,181,376,"Cognitive control",34,"Managing thoughts",true,"Choice selection",36,"Decision-making",true,"Cognitive control",34,"Managing thoughts",true,"Choice selection",36,"Decision-making",true,3315,,,,,,,,,
611f222b87129e565f38fb31,forced_choice,182,376,"Response to criticism",39,"Learning from feedback and mistakes",true,"Controlling feelings",29,"Managing emotions",true,"Response to criticism",39,"Learning from feedback and mistakes",true,"Controlling feelings",29,"Managing emotions",true,5431,,,,,,,,,
611f222b87129e565f38fb31,forced_choice,183,376,"Regulating conduct",0,"Managing behavior",true,"Response to criticism",39,"Learning from feedback and mistakes",true,"Response to criticism",39,"Learning from feedback and mistakes",true,"Regulating conduct",0,"Managing behavior",true,12784,,,,,,,,,
611f222b87129e565f38fb31,forced_choice,184,376,"Self-kindness",79,"Self-acceptance",true,"Introspection",78,"Self-reflection",true,"Introspection",78,"Self-reflection",true,"Self-kindness",79,"Self-acceptance",true,3662,,,,,,,,,
611f222b87129e565f38fb31,forced_choice,185,376,"Goal mapping",42,"Planning",true,"Collaboration with others",12,"Social cooperation",true,"Collaboration with others",12,"Social cooperation",true,"Goal mapping",42,"Planning",true,1761,,,,,,,,,
611f222b87129e565f38fb31,forced_choice,186,376,"Personal insight",76,"Self-awareness",true,"Schedule planning",44,"Time management",true,"Schedule planning",44,"Time management",true,"Personal insight",76,"Self-awareness",true,4601,,,,,,,,,
611f222b87129e565f38fb31,forced_choice,187,376,"Exhaustion",85,"Sleep and fatigue",true,"Interpersonal ease",13,"Comfort in social situations",true,"Interpersonal ease",13,"Comfort in social situations",true,"Exhaustion",85,"Sleep and fatigue",true,2314,,,,,,,,,
611f222b87129e565f38fb31,forced_choice,188,376,"Emotional disposition",32,"Mood",true,"Sexual behavior",18,"Sexual behavior",false,"Emotional disposition",32,"Mood",true,"Sexual behavior",18,"Sexual behavior",false,2720,,,,,,,,,
611f222b87129e565f38fb31,forced_choice,189,376,"Self-kindness",79,"Self-acceptance",true,"Ingenuity",50,"Creativity and imagination",true,"Self-kindness",79,"Self-acceptance",true,"Ingenuity",50,"Creativity and imagination",true,41111,,,,,,,,,
611f222b87129e565f38fb31,forced_choice,190,376,"Open mindset",58,"Openness",true,"Ingenuity",50,"Creativity and imagination",true,"Open mindset",58,"Openness",true,"Ingenuity",50,"Creativity and imagination",true,8082,,,,,,,,,
611f222b87129e565f38fb31,forced_choice,191,376,"Personal incentive",54,"Motivation",true,"Recreation",19,"Play",true,"Recreation",19,"Play",true,"Personal incentive",54,"Motivation",true,2284,,,,,,,,,
611f222b87129e565f38fb31,forced_choice,192,376,"Response to criticism",39,"Learning from feedback and mistakes",true,"Exhaustion",85,"Sleep and fatigue",true,"Response to criticism",39,"Learning from feedback and mistakes",true,"Exhaustion",85,"Sleep and fatigue",true,3915,,,,,,,,,
611f222b87129e565f38fb31,forced_choice,193,376,"Choice selection",36,"Decision-making",true,"Interpersonal ease",13,"Comfort in social situations",true,"Interpersonal ease",13,"Comfort in social situations",true,"Choice selection",36,"Decision-making",true,2933,,,,,,,,,
611f222b87129e565f38fb31,forced_choice,194,376,"Open mindset",58,"Openness",true,"Troubleshooting",37,"Problem solving",true,"Open mindset",58,"Openness",true,"Troubleshooting",37,"Problem solving",true,2110,,,,,,,,,
611f222b87129e565f38fb31,forced_choice,195,376,"Managing worries",86,"Stress management",true,"Recreation",19,"Play",true,"Recreation",19,"Play",true,"Managing worries",86,"Stress management",true,8236,,,,,,,,,
611f222b87129e565f38fb31,forced_choice,196,376,"Collaboration with others",12,"Social cooperation",true,"Skill development",38,"Learning new things",true,"Skill development",38,"Learning new things",true,"Collaboration with others",12,"Social cooperation",true,3345,,,,,,,,,
611f222b87129e565f38fb31,forced_choice,197,376,"Controlling feelings",29,"Managing emotions",true,"Ingenuity",50,"Creativity and imagination",true,"Controlling feelings",29,"Managing emotions",true,"Ingenuity",50,"Creativity and imagination",true,3185,,,,,,,,,
611f222b87129e565f38fb31,forced_choice,198,376,"Emotional disposition",32,"Mood",true,"Cognitive control",34,"Managing thoughts",true,"Cognitive control",34,"Managing thoughts",true,"Emotional disposition",32,"Mood",true,5564,,,,,,,,,
611f222b87129e565f38fb31,forced_choice,199,376,"Intimidation",23,"Bullying",true,"Interpersonal ease",13,"Comfort in social situations",true,"Interpersonal ease",13,"Comfort in social situations",true,"Intimidation",23,"Bullying",true,5994,,,,,,,,,
611f222b87129e565f38fb31,forced_choice,200,376,"Goal mapping",42,"Planning",true,"Self-kindness",79,"Self-acceptance",true,"Self-kindness",79,"Self-acceptance",true,"Goal mapping",42,"Planning",true,5997,,,,,,,,,
611f222b87129e565f38fb31,forced_choice,201,376,"Ability to wait",62,"Patience",true,"Open mindset",58,"Openness",true,"Ability to wait",62,"Patience",true,"Open mindset",58,"Openness",true,5453,,,,,,,,,
611f222b87129e565f38fb31,forced_choice,202,376,"Open mindset",58,"Openness",true,"Choice selection",36,"Decision-making",true,"Open mindset",58,"Openness",true,"Choice selection",36,"Decision-making",true,2277,,,,,,,,,
611f222b87129e565f38fb31,forced_choice,203,376,"Organization",43,"Organization",false,"Introspection",78,"Self-reflection",true,"Introspection",78,"Self-reflection",true,"Organization",43,"Organization",false,1970,,,,,,,,,
611f222b87129e565f38fb31,forced_choice,204,376,"Self-kindness",79,"Self-acceptance",true,"Open mindset",58,"Openness",true,"Self-kindness",79,"Self-acceptance",true,"Open mindset",58,"Openness",true,5049,,,,,,,,,
611f222b87129e565f38fb31,forced_choice,205,376,"Personal insight",76,"Self-awareness",true,"Organization",43,"Organization",false,"Personal insight",76,"Self-awareness",true,"Organization",43,"Organization",false,4441,,,,,,,,,
611f222b87129e565f38fb31,forced_choice,206,376,"Collaboration with others",12,"Social cooperation",true,"Cognitive control",34,"Managing thoughts",true,"Collaboration with others",12,"Social cooperation",true,"Cognitive control",34,"Managing thoughts",true,8764,,,,,,,,,
611f222b87129e565f38fb31,forced_choice,207,376,"Ingenuity",50,"Creativity and imagination",true,"Sexual behavior",18,"Sexual behavior",false,"Ingenuity",50,"Creativity and imagination",true,"Sexual behavior",18,"Sexual behavior",false,3998,,,,,,,,,
611f222b87129e565f38fb31,forced_choice,208,376,"Personal insight",76,"Self-awareness",true,"Open mindset",58,"Openness",true,"Open mindset",58,"Openness",true,"Personal insight",76,"Self-awareness",true,8068,,,,,,,,,
611f222b87129e565f38fb31,forced_choice,209,376,"Collaboration with others",12,"Social cooperation",true,"Choice selection",36,"Decision-making",true,"Collaboration with others",12,"Social cooperation",true,"Choice selection",36,"Decision-making",true,14329,,,,,,,,,
611f222b87129e565f38fb31,forced_choice,210,376,"Managing worries",86,"Stress management",true,"Troubleshooting",37,"Problem solving",true,"Managing worries",86,"Stress management",true,"Troubleshooting",37,"Problem solving",true,4364,,,,,,,,,
611f222b87129e565f38fb31,forced_choice,211,376,"Self-kindness",79,"Self-acceptance",true,"Organization",43,"Organization",false,"Self-kindness",79,"Self-acceptance",true,"Organization",43,"Organization",false,4476,,,,,,,,,
611f222b87129e565f38fb31,forced_choice,212,376,"Ability to wait",62,"Patience",true,"Interpersonal ease",13,"Comfort in social situations",true,"Ability to wait",62,"Patience",true,"Interpersonal ease",13,"Comfort in social situations",true,1915,,,,,,,,,
611f222b87129e565f38fb31,forced_choice,213,376,"Emotional disposition",32,"Mood",true,"Response to criticism",39,"Learning from feedback and mistakes",true,"Response to criticism",39,"Learning from feedback and mistakes",true,"Emotional disposition",32,"Mood",true,2168,,,,,,,,,
611f222b87129e565f38fb31,forced_choice,214,376,"Organization",43,"Organization",false,"Sexual behavior",18,"Sexual behavior",false,"Organization",43,"Organization",false,"Sexual behavior",18,"Sexual behavior",false,2085,,,,,,,,,
611f222b87129e565f38fb31,forced_choice,215,376,"Organization",43,"Organization",false,"Goal mapping",42,"Planning",true,"Goal mapping",42,"Planning",true,"Organization",43,"Organization",false,2162,,,,,,,,,
611f222b87129e565f38fb31,forced_choice,216,376,"Skill development",38,"Learning new things",true,"Managing worries",86,"Stress management",true,"Skill development",38,"Learning new things",true,"Managing worries",86,"Stress management",true,1615,,,,,,,,,
611f222b87129e565f38fb31,forced_choice,217,376,"Personal incentive",54,"Motivation",true,"Open mindset",58,"Openness",true,"Open mindset",58,"Openness",true,"Personal incentive",54,"Motivation",true,1949,,,,,,,,,
611f222b87129e565f38fb31,forced_choice,218,376,"Emotional disposition",32,"Mood",true,"Recreation",19,"Play",true,"Emotional disposition",32,"Mood",true,"Recreation",19,"Play",true,17550,,,,,,,,,
611f222b87129e565f38fb31,forced_choice,219,376,"Goal mapping",42,"Planning",true,"Emotional disposition",32,"Mood",true,"Emotional disposition",32,"Mood",true,"Goal mapping",42,"Planning",true,3000,,,,,,,,,
611f222b87129e565f38fb31,attention_check,223,,,,,,,,,,,,,,,,,,8079,"Managing emotions","Managing emotions",true,,,,,,
611f222b87129e565f38fb31,forced_choice,220,376,"Recreation",19,"Play",true,"Intimidation",23,"Bullying",true,"Recreation",19,"Play",true,"Intimidation",23,"Bullying",true,3281,,,,,,,,,
611f222b87129e565f38fb31,forced_choice,221,376,"Personal incentive",54,"Motivation",true,"Self-kindness",79,"Self-acceptance",true,"Self-kindness",79,"Self-acceptance",true,"Personal incentive",54,"Motivation",true,6716,,,,,,,,,
611f222b87129e565f38fb31,forced_choice,222,376,"Personal insight",76,"Self-awareness",true,"Troubleshooting",37,"Problem solving",true,"Personal insight",76,"Self-awareness",true,"Troubleshooting",37,"Problem solving",true,6480,,,,,,,,,
611f222b87129e565f38fb31,forced_choice,223,376,"Controlling feelings",29,"Managing emotions",true,"Goal mapping",42,"Planning",true,"Controlling feelings",29,"Managing emotions",true,"Goal mapping",42,"Planning",true,2381,,,,,,,,,
611f222b87129e565f38fb31,forced_choice,224,376,"Recreation",19,"Play",true,"Troubleshooting",37,"Problem solving",true,"Recreation",19,"Play",true,"Troubleshooting",37,"Problem solving",true,2462,,,,,,,,,
611f222b87129e565f38fb31,forced_choice,225,376,"Regulating conduct",0,"Managing behavior",true,"Interpersonal ease",13,"Comfort in social situations",true,"Regulating conduct",0,"Managing behavior",true,"Interpersonal ease",13,"Comfort in social situations",true,4347,,,,,,,,,
611f222b87129e565f38fb31,forced_choice,226,376,"Exhaustion",85,"Sleep and fatigue",true,"Controlling feelings",29,"Managing emotions",true,"Controlling feelings",29,"Managing emotions",true,"Exhaustion",85,"Sleep and fatigue",true,1498,,,,,,,,,
611f222b87129e565f38fb31,forced_choice,227,376,"Ability to wait",62,"Patience",true,"Controlling feelings",29,"Managing emotions",true,"Ability to wait",62,"Patience",true,"Controlling feelings",29,"Managing emotions",true,11303,,,,,,,,,
611f222b87129e565f38fb31,forced_choice,228,376,"Skill development",38,"Learning new things",true,"Schedule planning",44,"Time management",true,"Skill development",38,"Learning new things",true,"Schedule planning",44,"Time management",true,2176,,,,,,,,,
611f222b87129e565f38fb31,forced_choice,229,376,"Interactions with instructors",11,"Relationships with teachers",true,"Cognitive control",34,"Managing thoughts",true,"Cognitive control",34,"Managing thoughts",true,"Interactions with instructors",11,"Relationships with teachers",true,5020,,,,,,,,,
611f222b87129e565f38fb31,forced_choice,230,376,"Exhaustion",85,"Sleep and fatigue",true,"Interactions with instructors",11,"Relationships with teachers",true,"Interactions with instructors",11,"Relationships with teachers",true,"Exhaustion",85,"Sleep and fatigue",true,4094,,,,,,,,,
611f222b87129e565f38fb31,forced_choice,231,376,"Self-kindness",79,"Self-acceptance",true,"Interactions with instructors",11,"Relationships with teachers",true,"Interactions with instructors",11,"Relationships with teachers",true,"Self-kindness",79,"Self-acceptance",true,2833,,,,,,,,,
611f222b87129e565f38fb31,forced_choice,232,376,"Recreation",19,"Play",true,"Controlling feelings",29,"Managing emotions",true,"Controlling feelings",29,"Managing emotions",true,"Recreation",19,"Play",true,3133,,,,,,,,,
611f222b87129e565f38fb31,forced_choice,233,376,"Intimidation",23,"Bullying",true,"Response to criticism",39,"Learning from feedback and mistakes",true,"Response to criticism",39,"Learning from feedback and mistakes",true,"Intimidation",23,"Bullying",true,5480,,,,,,,,,
611f222b87129e565f38fb31,forced_choice,234,376,"Managing worries",86,"Stress management",true,"Introspection",78,"Self-reflection",true,"Introspection",78,"Self-reflection",true,"Managing worries",86,"Stress management",true,8846,,,,,,,,,
611f222b87129e565f38fb31,forced_choice,235,376,"Collaboration with others",12,"Social cooperation",true,"Interactions with instructors",11,"Relationships with teachers",true,"Collaboration with others",12,"Social cooperation",true,"Interactions with instructors",11,"Relationships with teachers",true,11119,,,,,,,,,
611f222b87129e565f38fb31,forced_choice,236,376,"Recreation",19,"Play",true,"Response to criticism",39,"Learning from feedback and mistakes",true,"Response to criticism",39,"Learning from feedback and mistakes",true,"Recreation",19,"Play",true,2664,,,,,,,,,
611f222b87129e565f38fb31,forced_choice,237,376,"Sexual behavior",18,"Sexual behavior",false,"Regulating conduct",0,"Managing behavior",true,"Regulating conduct",0,"Managing behavior",true,"Sexual behavior",18,"Sexual behavior",false,2891,,,,,,,,,
611f222b87129e565f38fb31,forced_choice,238,376,"Goal mapping",42,"Planning",true,"Interactions with instructors",11,"Relationships with teachers",true,"Interactions with instructors",11,"Relationships with teachers",true,"Goal mapping",42,"Planning",true,1450,,,,,,,,,
611f222b87129e565f38fb31,forced_choice,239,376,"Skill development",38,"Learning new things",true,"Interactions with instructors",11,"Relationships with teachers",true,"Skill development",38,"Learning new things",true,"Interactions with instructors",11,"Relationships with teachers",true,1505,,,,,,,,,
611f222b87129e565f38fb31,forced_choice,240,376,"Interactions with instructors",11,"Relationships with teachers",true,"Organization",43,"Organization",false,"Interactions with instructors",11,"Relationships with teachers",true,"Organization",43,"Organization",false,1893,,,,,,,,,
611f222b87129e565f38fb31,forced_choice,241,376,"Personal incentive",54,"Motivation",true,"Personal insight",76,"Self-awareness",true,"Personal insight",76,"Self-awareness",true,"Personal incentive",54,"Motivation",true,2402,,,,,,,,,
611f222b87129e565f38fb31,forced_choice,242,376,"Collaboration with others",12,"Social cooperation",true,"Open mindset",58,"Openness",true,"Collaboration with others",12,"Social cooperation",true,"Open mindset",58,"Openness",true,4233,,,,,,,,,
611f222b87129e565f38fb31,forced_choice,243,376,"Choice selection",36,"Decision-making",true,"Recreation",19,"Play",true,"Recreation",19,"Play",true,"Choice selection",36,"Decision-making",true,2501,,,,,,,,,
611f222b87129e565f38fb31,forced_choice,244,376,"Personal insight",76,"Self-awareness",true,"Skill development",38,"Learning new things",true,"Skill development",38,"Learning new things",true,"Personal insight",76,"Self-awareness",true,2327,,,,,,,,,
611f222b87129e565f38fb31,forced_choice,245,376,"Interactions with instructors",11,"Relationships with teachers",true,"Regulating conduct",0,"Managing behavior",true,"Interactions with instructors",11,"Relationships with teachers",true,"Regulating conduct",0,"Managing behavior",true,2384,,,,,,,,,
611f222b87129e565f38fb31,forced_choice,246,376,"Exhaustion",85,"Sleep and fatigue",true,"Intimidation",23,"Bullying",true,"Intimidation",23,"Bullying",true,"Exhaustion",85,"Sleep and fatigue",true,3034,,,,,,,,,
611f222b87129e565f38fb31,forced_choice,247,376,"Personal incentive",54,"Motivation",true,"Schedule planning",44,"Time management",true,"Schedule planning",44,"Time management",true,"Personal incentive",54,"Motivation",true,5028,,,,,,,,,
611f222b87129e565f38fb31,forced_choice,248,376,"Regulating conduct",0,"Managing behavior",true,"Introspection",78,"Self-reflection",true,"Regulating conduct",0,"Managing behavior",true,"Introspection",78,"Self-reflection",true,24699,,,,,,,,,
611f222b87129e565f38fb31,forced_choice,249,376,"Ingenuity",50,"Creativity and imagination",true,"Interactions with instructors",11,"Relationships with teachers",true,"Interactions with instructors",11,"Relationships with teachers",true,"Ingenuity",50,"Creativity and imagination",true,2634,,,,,,,,,
611f222b87129e565f38fb31,forced_choice,250,376,"Skill development",38,"Learning new things",true,"Cognitive control",34,"Managing thoughts",true,"Skill development",38,"Learning new things",true,"Cognitive control",34,"Managing thoughts",true,1611,,,,,,,,,
611f222b87129e565f38fb31,forced_choice,251,376,"Organization",43,"Organization",false,"Emotional disposition",32,"Mood",true,"Emotional disposition",32,"Mood",true,"Organization",43,"Organization",false,2381,,,,,,,,,
611f222b87129e565f38fb31,forced_choice,252,376,"Ability to wait",62,"Patience",true,"Personal insight",76,"Self-awareness",true,"Ability to wait",62,"Patience",true,"Personal insight",76,"Self-awareness",true,1747,,,,,,,,,
611f222b87129e565f38fb31,forced_choice,253,376,"Cognitive control",34,"Managing thoughts",true,"Troubleshooting",37,"Problem solving",true,"Cognitive control",34,"Managing thoughts",true,"Troubleshooting",37,"Problem solving",true,1663,,,,,,,,,
611f222b87129e565f38fb31,forced_choice,254,376,"Intimidation",23,"Bullying",true,"Controlling feelings",29,"Managing emotions",true,"Controlling feelings",29,"Managing emotions",true,"Intimidation",23,"Bullying",true,1335,,,,,,,,,
611f222b87129e565f38fb31,forced_choice,255,376,"Exhaustion",85,"Sleep and fatigue",true,"Personal incentive",54,"Motivation",true,"Personal incentive",54,"Motivation",true,"Exhaustion",85,"Sleep and fatigue",true,4695,,,,,,,,,
611f222b87129e565f38fb31,forced_choice,256,376,"Self-kindness",79,"Self-acceptance",true,"Schedule planning",44,"Time management",true,"Self-kindness",79,"Self-acceptance",true,"Schedule planning",44,"Time management",true,8735,,,,,,,,,
611f222b87129e565f38fb31,forced_choice,257,376,"Controlling feelings",29,"Managing emotions",true,"Open mindset",58,"Openness",true,"Controlling feelings",29,"Managing emotions",true,"Open mindset",58,"Openness",true,11493,,,,,,,,,
611f222b87129e565f38fb31,forced_choice,258,376,"Introspection",78,"Self-reflection",true,"Collaboration with others",12,"Social cooperation",true,"Collaboration with others",12,"Social cooperation",true,"Introspection",78,"Self-reflection",true,1401,,,,,,,,,
611f222b87129e565f38fb31,forced_choice,259,376,"Goal mapping",42,"Planning",true,"Open mindset",58,"Openness",true,"Open mindset",58,"Openness",true,"Goal mapping",42,"Planning",true,3879,,,,,,,,,
611f222b87129e565f38fb31,forced_choice,260,376,"Troubleshooting",37,"Problem solving",true,"Skill development",38,"Learning new things",true,"Skill development",38,"Learning new things",true,"Troubleshooting",37,"Problem solving",true,1368,,,,,,,,,
611f222b87129e565f38fb31,forced_choice,261,376,"Exhaustion",85,"Sleep and fatigue",true,"Schedule planning",44,"Time management",true,"Schedule planning",44,"Time management",true,"Exhaustion",85,"Sleep and fatigue",true,2148,,,,,,,,,
611f222b87129e565f38fb31,forced_choice,262,376,"Skill development",38,"Learning new things",true,"Controlling feelings",29,"Managing emotions",true,"Skill development",38,"Learning new things",true,"Controlling feelings",29,"Managing emotions",true,2420,,,,,,,,,
611f222b87129e565f38fb31,forced_choice,263,376,"Schedule planning",44,"Time management",true,"Open mindset",58,"Openness",true,"Open mindset",58,"Openness",true,"Schedule planning",44,"Time management",true,3047,,,,,,,,,
611f222b87129e565f38fb31,forced_choice,264,376,"Ingenuity",50,"Creativity and imagination",true,"Goal mapping",42,"Planning",true,"Goal mapping",42,"Planning",true,"Ingenuity",50,"Creativity and imagination",true,2360,,,,,,,,,
611f222b87129e565f38fb31,forced_choice,265,376,"Schedule planning",44,"Time management",true,"Managing worries",86,"Stress management",true,"Schedule planning",44,"Time management",true,"Managing worries",86,"Stress management",true,1887,,,,,,,,,
611f222b87129e565f38fb31,forced_choice,266,376,"Schedule planning",44,"Time management",true,"Troubleshooting",37,"Problem solving",true,"Schedule planning",44,"Time management",true,"Troubleshooting",37,"Problem solving",true,3624,,,,,,,,,
611f222b87129e565f38fb31,forced_choice,267,376,"Troubleshooting",37,"Problem solving",true,"Exhaustion",85,"Sleep and fatigue",true,"Troubleshooting",37,"Problem solving",true,"Exhaustion",85,"Sleep and fatigue",true,3485,,,,,,,,,
611f222b87129e565f38fb31,forced_choice,268,376,"Sexual behavior",18,"Sexual behavior",false,"Schedule planning",44,"Time management",true,"Schedule planning",44,"Time management",true,"Sexual behavior",18,"Sexual behavior",false,6402,,,,,,,,,
611f222b87129e565f38fb31,forced_choice,269,376,"Introspection",78,"Self-reflection",true,"Emotional disposition",32,"Mood",true,"Emotional disposition",32,"Mood",true,"Introspection",78,"Self-reflection",true,6561,,,,,,,,,
611f222b87129e565f38fb31,forced_choice,270,376,"Introspection",78,"Self-reflection",true,"Interpersonal ease",13,"Comfort in social situations",true,"Introspection",78,"Self-reflection",true,"Interpersonal ease",13,"Comfort in social situations",true,6297,,,,,,,,,
611f222b87129e565f38fb31,forced_choice,271,376,"Emotional disposition",32,"Mood",true,"Ability to wait",62,"Patience",true,"Ability to wait",62,"Patience",true,"Emotional disposition",32,"Mood",true,2618,,,,,,,,,
611f222b87129e565f38fb31,forced_choice,272,376,"Emotional disposition",32,"Mood",true,"Schedule planning",44,"Time management",true,"Emotional disposition",32,"Mood",true,"Schedule planning",44,"Time management",true,5695,,,,,,,,,
611f222b87129e565f38fb31,forced_choice,273,376,"Choice selection",36,"Decision-making",true,"Exhaustion",85,"Sleep and fatigue",true,"Exhaustion",85,"Sleep and fatigue",true,"Choice selection",36,"Decision-making",true,3333,,,,,,,,,
611f222b87129e565f38fb31,forced_choice,274,376,"Collaboration with others",12,"Social cooperation",true,"Personal insight",76,"Self-awareness",true,"Collaboration with others",12,"Social cooperation",true,"Personal insight",76,"Self-awareness",true,1700,,,,,,,,,
611f222b87129e565f38fb31,attention_check,279,,,,,,,,,,,,,,,,,,4511,"Paying attention","Paying attention",true,,,,,,
611f222b87129e565f38fb31,forced_choice,275,376,"Controlling feelings",29,"Managing emotions",true,"Collaboration with others",12,"Social cooperation",true,"Collaboration with others",12,"Social cooperation",true,"Controlling feelings",29,"Managing emotions",true,5499,,,,,,,,,
611f222b87129e565f38fb31,forced_choice,276,376,"Interactions with instructors",11,"Relationships with teachers",true,"Interpersonal ease",13,"Comfort in social situations",true,"Interactions with instructors",11,"Relationships with teachers",true,"Interpersonal ease",13,"Comfort in social situations",true,3437,,,,,,,,,
611f222b87129e565f38fb31,forced_choice,277,376,"Personal incentive",54,"Motivation",true,"Ingenuity",50,"Creativity and imagination",true,"Personal incentive",54,"Motivation",true,"Ingenuity",50,"Creativity and imagination",true,2395,,,,,,,,,
611f222b87129e565f38fb31,forced_choice,278,376,"Interactions with instructors",11,"Relationships with teachers",true,"Managing worries",86,"Stress management",true,"Interactions with instructors",11,"Relationships with teachers",true,"Managing worries",86,"Stress management",true,2463,,,,,,,,,
611f222b87129e565f38fb31,forced_choice,279,376,"Response to criticism",39,"Learning from feedback and mistakes",true,"Sexual behavior",18,"Sexual behavior",false,"Response to criticism",39,"Learning from feedback and mistakes",true,"Sexual behavior",18,"Sexual behavior",false,2684,,,,,,,,,
611f222b87129e565f38fb31,forced_choice,280,376,"Skill development",38,"Learning new things",true,"Goal mapping",42,"Planning",true,"Skill development",38,"Learning new things",true,"Goal mapping",42,"Planning",true,1682,,,,,,,,,
611f222b87129e565f38fb31,forced_choice,281,376,"Regulating conduct",0,"Managing behavior",true,"Organization",43,"Organization",false,"Regulating conduct",0,"Managing behavior",true,"Organization",43,"Organization",false,3749,,,,,,,,,
611f222b87129e565f38fb31,forced_choice,282,376,"Collaboration with others",12,"Social cooperation",true,"Schedule planning",44,"Time management",true,"Collaboration with others",12,"Social cooperation",true,"Schedule planning",44,"Time management",true,5747,,,,,,,,,
611f222b87129e565f38fb31,forced_choice,283,376,"Regulating conduct",0,"Managing behavior",true,"Open mindset",58,"Openness",true,"Open mindset",58,"Openness",true,"Regulating conduct",0,"Managing behavior",true,1852,,,,,,,,,
611f222b87129e565f38fb31,forced_choice,284,376,"Self-kindness",79,"Self-acceptance",true,"Skill development",38,"Learning new things",true,"Skill development",38,"Learning new things",true,"Self-kindness",79,"Self-acceptance",true,1561,,,,,,,,,
611f222b87129e565f38fb31,forced_choice,285,376,"Exhaustion",85,"Sleep and fatigue",true,"Regulating conduct",0,"Managing behavior",true,"Regulating conduct",0,"Managing behavior",true,"Exhaustion",85,"Sleep and fatigue",true,1533,,,,,,,,,
611f222b87129e565f38fb31,forced_choice,286,376,"Sexual behavior",18,"Sexual behavior",false,"Open mindset",58,"Openness",true,"Open mindset",58,"Openness",true,"Sexual behavior",18,"Sexual behavior",false,2198,,,,,,,,,
611f222b87129e565f38fb31,forced_choice,287,376,"Emotional disposition",32,"Mood",true,"Troubleshooting",37,"Problem solving",true,"Emotional disposition",32,"Mood",true,"Troubleshooting",37,"Problem solving",true,4175,,,,,,,,,
611f222b87129e565f38fb31,forced_choice,288,376,"Controlling feelings",29,"Managing emotions",true,"Cognitive control",34,"Managing thoughts",true,"Controlling feelings",29,"Managing emotions",true,"Cognitive control",34,"Managing thoughts",true,3369,,,,,,,,,
611f222b87129e565f38fb31,forced_choice,289,376,"Managing worries",86,"Stress management",true,"Regulating conduct",0,"Managing behavior",true,"Managing worries",86,"Stress management",true,"Regulating conduct",0,"Managing behavior",true,4381,,,,,,,,,
611f222b87129e565f38fb31,forced_choice,290,376,"Personal insight",76,"Self-awareness",true,"Choice selection",36,"Decision-making",true,"Personal insight",76,"Self-awareness",true,"Choice selection",36,"Decision-making",true,1915,,,,,,,,,
611f222b87129e565f38fb31,forced_choice,291,376,"Skill development",38,"Learning new things",true,"Personal incentive",54,"Motivation",true,"Skill development",38,"Learning new things",true,"Personal incentive",54,"Motivation",true,1599,,,,,,,,,
611f222b87129e565f38fb31,forced_choice,292,376,"Interpersonal ease",13,"Comfort in social situations",true,"Response to criticism",39,"Learning from feedback and mistakes",true,"Response to criticism",39,"Learning from feedback and mistakes",true,"Interpersonal ease",13,"Comfort in social situations",true,1451,,,,,,,,,
611f222b87129e565f38fb31,forced_choice,293,376,"Regulating conduct",0,"Managing behavior",true,"Choice selection",36,"Decision-making",true,"Regulating conduct",0,"Managing behavior",true,"Choice selection",36,"Decision-making",true,2014,,,,,,,,,
611f222b87129e565f38fb31,forced_choice,294,376,"Goal mapping",42,"Planning",true,"Personal insight",76,"Self-awareness",true,"Personal insight",76,"Self-awareness",true,"Goal mapping",42,"Planning",true,3348,,,,,,,,,
611f222b87129e565f38fb31,forced_choice,295,376,"Cognitive control",34,"Managing thoughts",true,"Ingenuity",50,"Creativity and imagination",true,"Cognitive control",34,"Managing thoughts",true,"Ingenuity",50,"Creativity and imagination",true,1863,,,,,,,,,
611f222b87129e565f38fb31,forced_choice,296,376,"Cognitive control",34,"Managing thoughts",true,"Managing worries",86,"Stress management",true,"Cognitive control",34,"Managing thoughts",true,"Managing worries",86,"Stress management",true,3929,,,,,,,,,
611f222b87129e565f38fb31,forced_choice,297,376,"Choice selection",36,"Decision-making",true,"Goal mapping",42,"Planning",true,"Goal mapping",42,"Planning",true,"Choice selection",36,"Decision-making",true,2321,,,,,,,,,
611f222b87129e565f38fb31,forced_choice,298,376,"Personal incentive",54,"Motivation",true,"Response to criticism",39,"Learning from feedback and mistakes",true,"Response to criticism",39,"Learning from feedback and mistakes",true,"Personal incentive",54,"Motivation",true,1644,,,,,,,,,
611f222b87129e565f38fb31,forced_choice,299,376,"Sexual behavior",18,"Sexual behavior",false,"Interpersonal ease",13,"Comfort in social situations",true,"Interpersonal ease",13,"Comfort in social situations",true,"Sexual behavior",18,"Sexual behavior",false,2961,,,,,,,,,
611f222b87129e565f38fb31,forced_choice,300,376,"Ingenuity",50,"Creativity and imagination",true,"Introspection",78,"Self-reflection",true,"Introspection",78,"Self-reflection",true,"Ingenuity",50,"Creativity and imagination",true,1836,,,,,,,,,
611f222b87129e565f38fb31,forced_choice,301,376,"Troubleshooting",37,"Problem solving",true,"Introspection",78,"Self-reflection",true,"Introspection",78,"Self-reflection",true,"Troubleshooting",37,"Problem solving",true,1850,,,,,,,,,
611f222b87129e565f38fb31,forced_choice,302,376,"Regulating conduct",0,"Managing behavior",true,"Ability to wait",62,"Patience",true,"Ability to wait",62,"Patience",true,"Regulating conduct",0,"Managing behavior",true,1916,,,,,,,,,
611f222b87129e565f38fb31,forced_choice,303,376,"Collaboration with others",12,"Social cooperation",true,"Exhaustion",85,"Sleep and fatigue",true,"Collaboration with others",12,"Social cooperation",true,"Exhaustion",85,"Sleep and fatigue",true,1468,,,,,,,,,
611f222b87129e565f38fb31,forced_choice,304,376,"Regulating conduct",0,"Managing behavior",true,"Recreation",19,"Play",true,"Regulating conduct",0,"Managing behavior",true,"Recreation",19,"Play",true,2926,,,,,,,,,
611f222b87129e565f38fb31,forced_choice,305,376,"Open mindset",58,"Openness",true,"Intimidation",23,"Bullying",true,"Open mindset",58,"Openness",true,"Intimidation",23,"Bullying",true,1817,,,,,,,,,
611f222b87129e565f38fb31,forced_choice,306,376,"Managing worries",86,"Stress management",true,"Personal insight",76,"Self-awareness",true,"Managing worries",86,"Stress management",true,"Personal insight",76,"Self-awareness",true,1896,,,,,,,,,
611f222b87129e565f38fb31,forced_choice,307,376,"Personal incentive",54,"Motivation",true,"Choice selection",36,"Decision-making",true,"Personal incentive",54,"Motivation",true,"Choice selection",36,"Decision-making",true,2117,,,,,,,,,
611f222b87129e565f38fb31,forced_choice,308,376,"Open mindset",58,"Openness",true,"Managing worries",86,"Stress management",true,"Managing worries",86,"Stress management",true,"Open mindset",58,"Openness",true,4401,,,,,,,,,
611f222b87129e565f38fb31,forced_choice,309,376,"Choice selection",36,"Decision-making",true,"Ability to wait",62,"Patience",true,"Ability to wait",62,"Patience",true,"Choice selection",36,"Decision-making",true,1760,,,,,,,,,
611f222b87129e565f38fb31,forced_choice,310,376,"Sexual behavior",18,"Sexual behavior",false,"Ability to wait",62,"Patience",true,"Ability to wait",62,"Patience",true,"Sexual behavior",18,"Sexual behavior",false,2166,,,,,,,,,
611f222b87129e565f38fb31,forced_choice,311,376,"Schedule planning",44,"Time management",true,"Cognitive control",34,"Managing thoughts",true,"Cognitive control",34,"Managing thoughts",true,"Schedule planning",44,"Time management",true,1978,,,,,,,,,
611f222b87129e565f38fb31,forced_choice,312,376,"Schedule planning",44,"Time management",true,"Response to criticism",39,"Learning from feedback and mistakes",true,"Response to criticism",39,"Learning from feedback and mistakes",true,"Schedule planning",44,"Time management",true,1553,,,,,,,,,
611f222b87129e565f38fb31,forced_choice,313,376,"Regulating conduct",0,"Managing behavior",true,"Schedule planning",44,"Time management",true,"Schedule planning",44,"Time management",true,"Regulating conduct",0,"Managing behavior",true,9348,,,,,,,,,
611f222b87129e565f38fb31,forced_choice,314,376,"Goal mapping",42,"Planning",true,"Personal incentive",54,"Motivation",true,"Personal incentive",54,"Motivation",true,"Goal mapping",42,"Planning",true,3115,,,,,,,,,
611f222b87129e565f38fb31,forced_choice,315,376,"Personal insight",76,"Self-awareness",true,"Interactions with instructors",11,"Relationships with teachers",true,"Interactions with instructors",11,"Relationships with teachers",true,"Personal insight",76,"Self-awareness",true,4198,,,,,,,,,
611f222b87129e565f38fb31,forced_choice,316,376,"Ability to wait",62,"Patience",true,"Schedule planning",44,"Time management",true,"Ability to wait",62,"Patience",true,"Schedule planning",44,"Time management",true,2485,,,,,,,,,
611f222b87129e565f38fb31,forced_choice,317,376,"Interactions with instructors",11,"Relationships with teachers",true,"Troubleshooting",37,"Problem solving",true,"Interactions with instructors",11,"Relationships with teachers",true,"Troubleshooting",37,"Problem solving",true,1979,,,,,,,,,
611f222b87129e565f38fb31,forced_choice,318,376,"Ingenuity",50,"Creativity and imagination",true,"Skill development",38,"Learning new things",true,"Skill development",38,"Learning new things",true,"Ingenuity",50,"Creativity and imagination",true,1419,,,,,,,,,
611f222b87129e565f38fb31,forced_choice,319,376,"Emotional disposition",32,"Mood",true,"Managing worries",86,"Stress management",true,"Emotional disposition",32,"Mood",true,"Managing worries",86,"Stress management",true,6133,,,,,,,,,
611f222b87129e565f38fb31,forced_choice,320,376,"Personal incentive",54,"Motivation",true,"Cognitive control",34,"Managing thoughts",true,"Cognitive control",34,"Managing thoughts",true,"Personal incentive",54,"Motivation",true,6698,,,,,,,,,
611f222b87129e565f38fb31,forced_choice,321,376,"Self-kindness",79,"Self-acceptance",true,"Personal insight",76,"Self-awareness",true,"Self-kindness",79,"Self-acceptance",true,"Personal insight",76,"Self-awareness",true,3082,,,,,,,,,
611f222b87129e565f38fb31,forced_choice,322,376,"Interactions with instructors",11,"Relationships with teachers",true,"Open mindset",58,"Openness",true,"Interactions with instructors",11,"Relationships with teachers",true,"Open mindset",58,"Openness",true,4061,,,,,,,,,
611f222b87129e565f38fb31,forced_choice,323,376,"Ability to wait",62,"Patience",true,"Recreation",19,"Play",true,"Ability to wait",62,"Patience",true,"Recreation",19,"Play",true,2496,,,,,,,,,
611f222b87129e565f38fb31,forced_choice,324,376,"Emotional disposition",32,"Mood",true,"Choice selection",36,"Decision-making",true,"Emotional disposition",32,"Mood",true,"Choice selection",36,"Decision-making",true,2330,,,,,,,,,
