user_id,task,trial_index,subset_index,left_term,left_construct_id,left_canonical,left_is_synonym,right_term,right_construct_id,right_canonical,right_is_synonym,chosen_term,chosen_construct_id,chosen_canonical,chosen_is_synonym,unchosen_term,unchosen_construct_id,unchosen_canonical,unchosen_is_synonym,response_time,correct_word,chosen_word,passed,grade_levels,special_needs,school_type,experience,class_size,country
65c1b23b2d7406c9c2b9f331,demographics,,,,,,,,,,,,,,,,,,,,,,,"primary","no","public",">10","15-25","Australia"
65c1b23b2d7406c9c2b9f331,forced_choice,0,225,"Drowsiness",85,"Sleep and fatigue",true,"Managing behavior",0,"Managing behavior",false,"Managing behavior",0,"Managing behavior",false,"Drowsiness",85,"Sleep and fatigue",true,18638,,,,,,,,,
65c1b23b2d7406c9c2b9f331,forced_choice,1,225,"Gender expression",18,"Sexual behavior",true,"Managing behavior",0,"Managing behavior",false,"Managing behavior",0,"Managing behavior",false,"Gender expression",18,"Sexual behavior",true,4655,,,,,,,,,
65c1b23b2d7406c9c2b9f331,forced_choice,2,225,"Relationships with teachers",11,"Relationships with teachers",false,"Interpersonal ease",13,"Comfort in social situations",true,"Interpersonal ease",13,"Comfort in social situations",true,"Relationships with teachers",11,"Relationships with teachers",false,5153,,,,,,,,,
65c1b23b2d7406c9c2b9f331,forced_choice,3,225,"Mental regulation",34,"Managing thoughts",true,"Organization",43,"Organization",false,"Mental regulation",34,"Managing thoughts",true,"Organization",43,"Organization",false,4739,,,,,,,,,
65c1b23b2d7406c9c2b9f331,forced_choice,4,225,"Interpersonal ease",13,"Comfort in social situations",true,"Decision-making",36,"Decision-making",false,"Decision-making",36,"Decision-making",false,"Interpersonal ease",13,"Comfort in social situations",true,3555,,,,,,,,,
65c1b23b2d7406c9c2b9f331,forced_choice,5,225,"Social connections",9,"Relationships with peers",true,"Social communication",14,"Social communication",false,"Social connections",9,"Relationships with peers",true,"Social communication",14,"Social communication",false,6404,,,,,,,,,
65c1b23b2d7406c9c2b9f331,forced_choice,6,225,"Respect for others",17,"Respect for others",false,"Industriousness",67,"Work habits",true,"Respect for others",17,"Respect for others",false,"Industriousness",67,"Work habits",true,2999,,,,,,,,,
65c1b23b2d7406c9c2b9f331,forced_choice,7,225,"Drowsiness",85,"Sleep and fatigue",true,"Social communication",14,"Social communication",false,"Social communication",14,"Social communication",false,"Drowsiness",85,"Sleep and fatigue",true,2189,,,,,,,,,
65c1b23b2d7406c9c2b9f331,forced_choice,8,225,"Justice",60,"Fairness",true,"Interpersonal ease",13,"Comfort in social situations",true,"Justice",60,"Fairness",true,"Interpersonal ease",13,"Comfort in social situations",true,5826,,,,,,,,,
65c1b23b2d7406c9c2b9f331,forced_choice,9,225,"Managing behavior",0,"Managing behavior",false,"Industriousness",67,"Work habits",true,"Managing behavior",0,"Managing behavior",false,"Industriousness",67,"Work habits",true,4289,,,,,,,,,
65c1b23b2d7406c9c2b9f331,forced_choice,10,225,"Respectful",61,"Politeness",true,"Personal observation",77,"Self-monitoring",true,"Personal observation",77,"Self-monitoring",true,"Respectful",61,"Politeness",true,9772,,,,,,,,,
65c1b23b2d7406c9c2b9f331,forced_choice,11,225,"Personal observation",77,"Self-monitoring",true,"Organization",43,"Organization",false,"Personal observation",77,"Self-monitoring",true,"Organization",43,"Organization",false,3005,,,,,,,,,
65c1b23b2d7406c9c2b9f331,forced_choice,12,225,"Willingness to try new things",57,"Willingness to try new things",false,"Social connections",9,"Relationships with peers",true,"Social connections",9,"Relationships with peers",true,"Willingness to try new things",57,"Willingness to try new things",false,4575,,,,,,,,,
65c1b23b2d7406c9c2b9f331,forced_choice,13,225,"Managing behavior",0,"Managing behavior",false,"Relationships with unfamiliar people",8,"Relationships with unfamiliar people",false,"Managing behavior",0,"Managing behavior",false,"Relationships with unfamiliar people",8,"Relationships with unfamiliar people",false,7461,,,,,,,,,
65c1b23b2d7406c9c2b9f331,forced_choice,14,225,"Gender expression",18,"Sexual behavior",true,"Relationships with unfamiliar people",8,"Relationships with unfamiliar people",false,"Gender expression",18,"Sexual behavior",true,"Relationships with unfamiliar people",8,"Relationships with unfamiliar people",false,3265,,,,,,,,,
65c1b23b2d7406c9c2b9f331,forced_choice,15,225,"Gender expression",18,"Sexual behavior",true,"Trust in oneself",80,"Self-confidence",true,"Trust in oneself",80,"Self-confidence",true,"Gender expression",18,"Sexual behavior",true,3478,,,,,,,,,
65c1b23b2d7406c9c2b9f331,forced_choice,16,225,"Managing behavior",0,"Managing behavior",false,"Respectful",61,"Politeness",true,"Managing behavior",0,"Managing behavior",false,"Respectful",61,"Politeness",true,1634,,,,,,,,,
65c1b23b2d7406c9c2b9f331,forced_choice,17,225,"Social connections",9,"Relationships with peers",true,"Respect for others",17,"Respect for others",false,"Respect for others",17,"Respect for others",false,"Social connections",9,"Relationships with peers",true,2805,,,,,,,,,
65c1b23b2d7406c9c2b9f331,forced_choice,18,225,"Respectful",61,"Politeness",true,"Social connections",9,"Relationships with peers",true,"Social connections",9,"Relationships with peers",true,"Respectful",61,"Politeness",true,2274,,,,,,,,,
65c1b23b2d7406c9c2b9f331,forced_choice,19,225,"Respectful",61,"Politeness",true,"Interpersonal ease",13,"Comfort in social situations",true,"Interpersonal ease",13,"Comfort in social situations",true,"Respectful",61,"Politeness",true,2254,,,,,,,,,
65c1b23b2d7406c9c2b9f331,forced_choice,20,225,"Relationships with teachers",11,"Relationships with teachers",false,"Organization",43,"Organization",false,"Organization",43,"Organization",false,"Relationships with teachers",11,"Relationships with teachers",false,4018,,,,,,,,,
65c1b23b2d7406c9c2b9f331,forced_choice,21,225,"Personal observation",77,"Self-monitoring",true,"Exercizing authority",55,"Leadership",true,"Personal observation",77,"Self-monitoring",true,"Exercizing authority",55,"Leadership",true,3616,,,,,,,,,
65c1b23b2d7406c9c2b9f331,forced_choice,22,225,"Resilience",28,"Resilience",false,"Eating and diet",83,"Eating and diet",false,"Resilience",28,"Resilience",false,"Eating and diet",83,"Eating and diet",false,2160,,,,,,,,,
65c1b23b2d7406c9c2b9f331,forced_choice,23,225,"Managing behavior",0,"Managing behavior",false,"Social connections",9,"Relationships with peers",true,"Social connections",9,"Relationships with peers",true,"Managing behavior",0,"Managing behavior",false,1791,,,,,,,,,
65c1b23b2d7406c9c2b9f331,forced_choice,24,225,"Relationships with unfamiliar people",8,"Relationships with unfamiliar people",false,"Eating and diet",83,"Eating and diet",false,"Relationships with unfamiliar people",8,"Relationships with unfamiliar people",false,"Eating and diet",83,"Eating and diet",false,7868,,,,,,,,,
65c1b23b2d7406c9c2b9f331,forced_choice,25,225,"Decision-making",36,"Decision-making",false,"Drowsiness",85,"Sleep and fatigue",true,"Decision-making",36,"Decision-making",false,"Drowsiness",85,"Sleep and fatigue",true,2257,,,,,,,,,
65c1b23b2d7406c9c2b9f331,forced_choice,26,225,"Relationships with unfamiliar people",8,"Relationships with unfamiliar people",false,"Mental regulation",34,"Managing thoughts",true,"Mental regulation",34,"Managing thoughts",true,"Relationships with unfamiliar people",8,"Relationships with unfamiliar people",false,2512,,,,,,,,,
65c1b23b2d7406c9c2b9f331,forced_choice,27,225,"Social connections",9,"Relationships with peers",true,"Eating and diet",83,"Eating and diet",false,"Social connections",9,"Relationships with peers",true,"Eating and diet",83,"Eating and diet",false,1776,,,,,,,,,
65c1b23b2d7406c9c2b9f331,forced_choice,28,225,"Mental health",84,"Emotional well-being",true,"Navigating difficulties",25,"Coping skills",true,"Navigating difficulties",25,"Coping skills",true,"Mental health",84,"Emotional well-being",true,9473,,,,,,,,,
65c1b23b2d7406c9c2b9f331,forced_choice,29,225,"Interpersonal ease",13,"Comfort in social situations",true,"Eating and diet",83,"Eating and diet",false,"Interpersonal ease",13,"Comfort in social situations",true,"Eating and diet",83,"Eating and diet",false,1582,,,,,,,,,
65c1b23b2d7406c9c2b9f331,forced_choice,30,225,"Organization",43,"Organization",false,"Willingness to try new things",57,"Willingness to try new things",false,"Willingness to try new things",57,"Willingness to try new things",false,"Organization",43,"Organization",false,5631,,,,,,,,,
65c1b23b2d7406c9c2b9f331,forced_choice,31,225,"Navigating difficulties",25,"Coping skills",true,"Social connections",9,"Relationships with peers",true,"Navigating difficulties",25,"Coping skills",true,"Social connections",9,"Relationships with peers",true,3860,,,,,,,,,
65c1b23b2d7406c9c2b9f331,forced_choice,32,225,"Trust in oneself",80,"Self-confidence",true,"Managing behavior",0,"Managing behavior",false,"Trust in oneself",80,"Self-confidence",true,"Managing behavior",0,"Managing behavior",false,5386,,,,,,,,,
65c1b23b2d7406c9c2b9f331,forced_choice,33,225,"Requesting assistance",3,"Seeking help",true,"Justice",60,"Fairness",true,"Requesting assistance",3,"Seeking help",true,"Justice",60,"Fairness",true,2706,,,,,,,,,
65c1b23b2d7406c9c2b9f331,forced_choice,34,225,"Interpersonal ease",13,"Comfort in social situations",true,"Navigating difficulties",25,"Coping skills",true,"Navigating difficulties",25,"Coping skills",true,"Interpersonal ease",13,"Comfort in social situations",true,3060,,,,,,,,,
65c1b23b2d7406c9c2b9f331,forced_choice,35,225,"Willingness to try new things",57,"Willingness to try new things",false,"Interpersonal ease",13,"Comfort in social situations",true,"Willingness to try new things",57,"Willingness to try new things",false,"Interpersonal ease",13,"Comfort in social situations",true,1934,,,,,,,,,
65c1b23b2d7406c9c2b9f331,forced_choice,36,225,"Managing behavior",0,"Managing behavior",false,"Relationships with teachers",11,"Relationships with teachers",false,"Managing behavior",0,"Managing behavior",false,"Relationships with teachers",11,"Relationships with teachers",false,2151,,,,,,,,,
65c1b23b2d7406c9c2b9f331,forced_choice,37,225,"Drowsiness",85,"Sleep and fatigue",true,"Organization",43,"Organization",false,"Drowsiness",85,"Sleep and fatigue",true,"Organization",43,"Organization",false,4103,,,,,,,,,
65c1b23b2d7406c9c2b9f331,forced_choice,38,225,"Mental health",84,"Emotional well-being",true,"Social connections",9,"Relationships with peers",true,"Mental health",84,"Emotional well-being",true,"Social connections",9,"Relationships with peers",true,3584,,,,,,,,,
65c1b23b2d7406c9c2b9f331,forced_choice,39,225,"Willingness to try new things",57,"Willingness to try new things",false,"Resilience",28,"Resilience",false,"Resilience",28,"Resilience",false,"Willingness to try new things",57,"Willingness to try new things",false,1709,,,,,,,,,
65c1b23b2d7406c9c2b9f331,forced_choice,40,225,"Social connections",9,"Relationships with peers",true,"Relationships with unfamiliar people",8,"Relationships with unfamiliar people",false,"Social connections",9,"Relationships with peers",true,"Relationships with unfamiliar people",8,"Relationships with unfamiliar people",false,2258,,,,,,,,,
65c1b23b2d7406c9c2b9f331,forced_choice,41,225,"Managing behavior",0,"Managing behavior",false,"Restraint",75,"Self-control",true,"Managing behavior",0,"Managing behavior",false,"Restraint",75,"Self-control",true,3485,,,,,,,,,
65c1b23b2d7406c9c2b9f331,forced_choice,42,225,"Respectful",61,"Politeness",true,"Relationships with teachers",11,"Relationships with teachers",false,"Respectful",61,"Politeness",true,"Relationships with teachers",11,"Relationships with teachers",false,3228,,,,,,,,,
65c1b23b2d7406c9c2b9f331,forced_choice,43,225,"Mental health",84,"Emotional well-being",true,"Organization",43,"Organization",false,"Mental health",84,"Emotional well-being",true,"Organization",43,"Organization",false,1536,,,,,,,,,
65c1b23b2d7406c9c2b9f331,forced_choice,44,225,"Decision-making",36,"Decision-making",false,"Willingness to try new things",57,"Willingness to try new things",false,"Decision-making",36,"Decision-making",false,"Willingness to try new things",57,"Willingness to try new things",false,3103,,,,,,,,,
65c1b23b2d7406c9c2b9f331,forced_choice,45,225,"Managing behavior",0,"Managing behavior",false,"Navigating difficulties",25,"Coping skills",true,"Navigating difficulties",25,"Coping skills",true,"Managing behavior",0,"Managing behavior",false,1740,,,,,,,,,
65c1b23b2d7406c9c2b9f331,forced_choice,46,225,"Mental health",84,"Emotional well-being",true,"Interpersonal ease",13,"Comfort in social situations",true,"Mental health",84,"Emotional well-being",true,"Interpersonal ease",13,"Comfort in social situations",true,1745,,,,,,,,,
65c1b23b2d7406c9c2b9f331,forced_choice,47,225,"Managing behavior",0,"Managing behavior",false,"Requesting assistance",3,"Seeking help",true,"Managing behavior",0,"Managing behavior",false,"Requesting assistance",3,"Seeking help",true,5512,,,,,,,,,
65c1b23b2d7406c9c2b9f331,forced_choice,48,225,"Respectful",61,"Politeness",true,"Trust in oneself",80,"Self-confidence",true,"Trust in oneself",80,"Self-confidence",true,"Respectful",61,"Politeness",true,1628,,,,,,,,,
65c1b23b2d7406c9c2b9f331,forced_choice,49,225,"Mental regulation",34,"Managing thoughts",true,"Managing behavior",0,"Managing behavior",false,"Mental regulation",34,"Managing thoughts",true,"Managing behavior",0,"Managing behavior",false,2347,,,,,,,,,
65c1b23b2d7406c9c2b9f331,forced_choice,50,225,"Navigating difficulties",25,"Coping skills",true,"Requesting assistance",3,"Seeking help",true,"Navigating difficulties",25,"Coping skills",true,"Requesting assistance",3,"Seeking help",true,3398,,,,,,,,,
65c1b23b2d7406c9c2b9f331,forced_choice,51,225,"Respect for others",17,"Respect for others",false,"Trust in oneself",80,"Self-confidence",true,"Trust in oneself",80,"Self-confidence",true,"Respect for others",17,"Respect for others",false,2347,,,,,,,,,
65c1b23b2d7406c9c2b9f331,forced_choice,52,225,"Gender expression",18,"Sexual behavior",true,"Personal observation",77,"Self-monitoring",true,"Personal observation",77,"Self-monitoring",true,"Gender expression",18,"Sexual behavior",true,1934,,,,,,,,,
65c1b23b2d7406c9c2b9f331,forced_choice,53,225,"Working for outcomes",45,"Setting and striving for goals",true,"Trust in oneself",80,"Self-confidence",true,"Working for outcomes",45,"Setting and striving for goals",true,"Trust in oneself",80,"Self-confidence",true,2489,,,,,,,,,
65c1b23b2d7406c9c2b9f331,forced_choice,54,225,"Mental health",84,"Emotional well-being",true,"Relationships with unfamiliar people",8,"Relationships with unfamiliar people",false,"Mental health",84,"Emotional well-being",true,"Relationships with unfamiliar people",8,"Relationships with unfamiliar people",false,2400,,,,,,,,,
65c1b23b2d7406c9c2b9f331,attention_check,55,,,,,,,,,,,,,,,,,,6000,"Managing emotions","Managing emotions",true,,,,,,
65c1b23b2d7406c9c2b9f331,forced_choice,55,225,"Personal observation",77,"Self-monitoring",true,"Managing behavior",0,"Managing behavior",false,"Personal observation",77,"Self-monitoring",true,"Managing behavior",0,"Managing behavior",false,4252,,,,,,,,,
65c1b23b2d7406c9c2b9f331,forced_choice,56,225,"Social communication",14,"Social communication",false,"Personal observation",77,"Self-monitoring",true,"Social communication",14,"Social communication",false,"Personal observation",77,"Self-monitoring",true,1716,,,,,,,,,
65c1b23b2d7406c9c2b9f331,forced_choice,57,225,"Restraint",75,"Self-control",true,"Respectful",61,"Politeness",true,"Restraint",75,"Self-control",true,"Respectful",61,"Politeness",true,1844,,,,,,,,,
65c1b23b2d7406c9c2b9f331,forced_choice,58,225,"Trust in oneself",80,"Self-confidence",true,"Exercizing authority",55,"Leadership",true,"Trust in oneself",80,"Self-confidence",true,"Exercizing authority",55,"Leadership",true,2084,,,,,,,,,
65c1b23b2d7406c9c2b9f331,forced_choice,59,225,"Managing behavior",0,"Managing behavior",false,"Respect for others",17,"Respect for others",false,"Respect for others",17,"Respect for others",false,"Managing behavior",0,"Managing behavior",false,3452,,,,,,,,,
65c1b23b2d7406c9c2b9f331,forced_choice,60,225,"Navigating difficulties",25,"Coping skills",true,"Respect for others",17,"Respect for others",false,"Navigating difficulties",25,"Coping skills",true,"Respect for others",17,"Respect for others",false,1677,,,,,,,,,
65c1b23b2d7406c9c2b9f331,forced_choice,61,225,"Managing behavior",0,"Managing behavior",false,"Mental health",84,"Emotional well-being",true,"Mental health",84,"Emotional well-being",true,"Managing behavior",0,"Managing behavior",false,1770,,,,,,,,,
65c1b23b2d7406c9c2b9f331,forced_choice,62,225,"Respect for others",17,"Respect for others",false,"Justice",60,"Fairness",true,"Justice",60,"Fairness",true,"Respect for others",17,"Respect for others",false,2121,,,,,,,,,
65c1b23b2d7406c9c2b9f331,forced_choice,63,225,"Respect for others",17,"Respect for others",false,"Drowsiness",85,"Sleep and fatigue",true,"Respect for others",17,"Respect for others",false,"Drowsiness",85,"Sleep and fatigue",true,2683,,,,,,,,,
65c1b23b2d7406c9c2b9f331,forced_choice,64,225,"Social communication",14,"Social communication",false,"Resilience",28,"Resilience",false,"Resilience",28,"Resilience",false,"Social communication",14,"Social communication",false,2004,,,,,,,,,
65c1b23b2d7406c9c2b9f331,forced_choice,65,225,"Interpersonal ease",13,"Comfort in social situations",true,"Gender expression",18,"Sexual behavior",true,"Interpersonal ease",13,"Comfort in social situations",true,"Gender expression",18,"Sexual behavior",true,2331,,,,,,,,,
65c1b23b2d7406c9c2b9f331,forced_choice,66,225,"Organization",43,"Organization",false,"Justice",60,"Fairness",true,"Organization",43,"Organization",false,"Justice",60,"Fairness",true,4567,,,,,,,,,
65c1b23b2d7406c9c2b9f331,forced_choice,67,225,"Requesting assistance",3,"Seeking help",true,"Personal observation",77,"Self-monitoring",true,"Requesting assistance",3,"Seeking help",true,"Personal observation",77,"Self-monitoring",true,3540,,,,,,,,,
65c1b23b2d7406c9c2b9f331,forced_choice,68,225,"Interpersonal ease",13,"Comfort in social situations",true,"Personal observation",77,"Self-monitoring",true,"Interpersonal ease",13,"Comfort in social situations",true,"Personal observation",77,"Self-monitoring",true,1889,,,,,,,,,
65c1b23b2d7406c9c2b9f331,forced_choice,69,225,"Mental regulation",34,"Managing thoughts",true,"Drowsiness",85,"Sleep and fatigue",true,"Mental regulation",34,"Managing thoughts",true,"Drowsiness",85,"Sleep and fatigue",true,2272,,,,,,,,,
65c1b23b2d7406c9c2b9f331,forced_choice,70,225,"Exercizing authority",55,"Leadership",true,"Resilience",28,"Resilience",false,"Resilience",28,"Resilience",false,"Exercizing authority",55,"Leadership",true,1566,,,,,,,,,
65c1b23b2d7406c9c2b9f331,forced_choice,71,225,"Working for outcomes",45,"Setting and striving for goals",true,"Exercizing authority",55,"Leadership",true,"Working for outcomes",45,"Setting and striving for goals",true,"Exercizing authority",55,"Leadership",true,2049,,,,,,,,,
65c1b23b2d7406c9c2b9f331,forced_choice,72,225,"Respectful",61,"Politeness",true,"Mental health",84,"Emotional well-being",true,"Mental health",84,"Emotional well-being",true,"Respectful",61,"Politeness",true,1408,,,,,,,,,
65c1b23b2d7406c9c2b9f331,forced_choice,73,225,"Organization",43,"Organization",false,"Gender expression",18,"Sexual behavior",true,"Gender expression",18,"Sexual behavior",true,"Organization",43,"Organization",false,5542,,,,,,,,,
65c1b23b2d7406c9c2b9f331,forced_choice,74,225,"Exercizing authority",55,"Leadership",true,"Drowsiness",85,"Sleep and fatigue",true,"Drowsiness",85,"Sleep and fatigue",true,"Exercizing authority",55,"Leadership",true,1911,,,,,,,,,
65c1b23b2d7406c9c2b9f331,forced_choice,75,225,"Respectful",61,"Politeness",true,"Organization",43,"Organization",false,"Organization",43,"Organization",false,"Respectful",61,"Politeness",true,3164,,,,,,,,,
65c1b23b2d7406c9c2b9f331,forced_choice,76,225,"Relationships with teachers",11,"Relationships with teachers",false,"Social connections",9,"Relationships with peers",true,"Social connections",9,"Relationships with peers",true,"Relationships with teachers",11,"Relationships with teachers",false,1727,,,,,,,,,
65c1b23b2d7406c9c2b9f331,forced_choice,77,225,"Working for outcomes",45,"Setting and striving for goals",true,"Restraint",75,"Self-control",true,"Working for outcomes",45,"Setting and striving for goals",true,"Restraint",75,"Self-control",true,3448,,,,,,,,,
65c1b23b2d7406c9c2b9f331,forced_choice,78,225,"Industriousness",67,"Work habits",true,"Justice",60,"Fairness",true,"Industriousness",67,"Work habits",true,"Justice",60,"Fairness",true,1560,,,,,,,,,
65c1b23b2d7406c9c2b9f331,forced_choice,79,225,"Social communication",14,"Social communication",false,"Mental regulation",34,"Managing thoughts",true,"Social communication",14,"Social communication",false,"Mental regulation",34,"Managing thoughts",true,2450,,,,,,,,,
65c1b23b2d7406c9c2b9f331,forced_choice,80,225,"Mental health",84,"Emotional well-being",true,"Gender expression",18,"Sexual behavior",true,"Mental health",84,"Emotional well-being",true,"Gender expression",18,"Sexual behavior",true,1665,,,,,,,,,
65c1b23b2d7406c9c2b9f331,forced_choice,81,225,"Willingness to try new things",57,"Willingness to try new things",false,"Industriousness",67,"Work habits",true,"Willingness to try new things",57,"Willingness to try new things",false,"Industriousness",67,"Work habits",true,1702,,,,,,,,,
65c1b23b2d7406c9c2b9f331,forced_choice,82,225,"Willingness to try new things",57,"Willingness to try new things",false,"Personal observation",77,"Self-monitoring",true,"Willingness to try new things",57,"Willingness to try new things",false,"Personal observation",77,"Self-monitoring",true,1544,,,,,,,,,
65c1b23b2d7406c9c2b9f331,forced_choice,83,225,"Social connections",9,"Relationships with peers",true,"Trust in oneself",80,"Self-confidence",true,"Social connections",9,"Relationships with peers",true,"Trust in oneself",80,"Self-confidence",true,1942,,,,,,,,,
65c1b23b2d7406c9c2b9f331,forced_choice,84,225,"Respect for others",17,"Respect for others",false,"Relationships with teachers",11,"Relationships with teachers",false,"Respect for others",17,"Respect for others",false,"Relationships with teachers",11,"Relationships with teachers",false,1858,,,,,,,,,
65c1b23b2d7406c9c2b9f331,forced_choice,85,225,"Trust in oneself",80,"Self-confidence",true,"Eating and diet",83,"Eating and diet",false,"Trust in oneself",80,"Self-confidence",true,"Eating and diet",83,"Eating and diet",false,1666,,,,,,,,,
65c1b23b2d7406c9c2b9f331,forced_choice,86,225,"Relationships with unfamiliar people",8,"Relationships with unfamiliar people",false,"Requesting assistance",3,"Seeking help",true,"Requesting assistance",3,"Seeking help",true,"Relationships with unfamiliar people",8,"Relationships with unfamiliar people",false,1508,,,,,,,,,
65c1b23b2d7406c9c2b9f331,forced_choice,87,225,"Exercizing authority",55,"Leadership",true,"Relationships with teachers",11,"Relationships with teachers",false,"Exercizing authority",55,"Leadership",true,"Relationships with teachers",11,"Relationships with teachers",false,1730,,,,,,,,,
65c1b23b2d7406c9c2b9f331,forced_choice,88,225,"Mental health",84,"Emotional well-being",true,"Drowsiness",85,"Sleep and fatigue",true,"Mental health",84,"Emotional well-being",true,"Drowsiness",85,"Sleep and fatigue",true,1139,,,,,,,,,
65c1b23b2d7406c9c2b9f331,forced_choice,89,225,"Requesting assistance",3,"Seeking help",true,"Industriousness",67,"Work habits",true,"Industriousness",67,"Work habits",true,"Requesting assistance",3,"Seeking help",true,4157,,,,,,,,,
65c1b23b2d7406c9c2b9f331,forced_choice,90,225,"Restraint",75,"Self-control",true,"Justice",60,"Fairness",true,"Justice",60,"Fairness",true,"Restraint",75,"Self-control",true,2324,,,,,,,,,
65c1b23b2d7406c9c2b9f331,forced_choice,91,225,"Industriousness",67,"Work habits",true,"Respectful",61,"Politeness",true,"Industriousness",67,"Work habits",true,"Respectful",61,"Politeness",true,2467,,,,,,,,,
65c1b23b2d7406c9c2b9f331,forced_choice,92,225,"Social communication",14,"Social communication",false,"Relationships with teachers",11,"Relationships with teachers",false,"Social communication",14,"Social communication",false,"Relationships with teachers",11,"Relationships with teachers",false,1604,,,,,,,,,
65c1b23b2d7406c9c2b9f331,forced_choice,93,225,"Restraint",75,"Self-control",true,"Relationships with unfamiliar people",8,"Relationships with unfamiliar people",false,"Relationships with unfamiliar people",8,"Relationships with unfamiliar people",false,"Restraint",75,"Self-control",true,3614,,,,,,,,,
65c1b23b2d7406c9c2b9f331,forced_choice,94,225,"Restraint",75,"Self-control",true,"Personal observation",77,"Self-monitoring",true,"Personal observation",77,"Self-monitoring",true,"Restraint",75,"Self-control",true,1844,,,,,,,,,
65c1b23b2d7406c9c2b9f331,forced_choice,95,225,"Navigating difficulties",25,"Coping skills",true,"Organization",43,"Organization",false,"Navigating difficulties",25,"Coping skills",true,"Organization",43,"Organization",false,1898,,,,,,,,,
65c1b23b2d7406c9c2b9f331,forced_choice,96,225,"Navigating difficulties",25,"Coping skills",true,"Trust in oneself",80,"Self-confidence",true,"Navigating difficulties",25,"Coping skills",true,"Trust in oneself",80,"Self-confidence",true,2309,,,,,,,,,
65c1b23b2d7406c9c2b9f331,forced_choice,97,225,"Requesting assistance",3,"Seeking help",true,"Eating and diet",83,"Eating and diet",false,"Requesting assistance",3,"Seeking help",true,"Eating and diet",83,"Eating and diet",false,2702,,,,,,,,,
65c1b23b2d7406c9c2b9f331,forced_choice,98,225,"Willingness to try new things",57,"Willingness to try new things",false,"Justice",60,"Fairness",true,"Willingness to try new things",57,"Willingness to try new things",false,"Justice",60,"Fairness",true,1594,,,,,,,,,
65c1b23b2d7406c9c2b9f331,forced_choice,99,225,"Justice",60,"Fairness",true,"Resilience",28,"Resilience",false,"Resilience",28,"Resilience",false,"Justice",60,"Fairness",true,1500,,,,,,,,,
65c1b23b2d7406c9c2b9f331,forced_choice,100,225,"Decision-making",36,"Decision-making",false,"Mental health",84,"Emotional well-being",true,"Mental health",84,"Emotional well-being",true,"Decision-making",36,"Decision-making",false,7894,,,,,,,,,
65c1b23b2d7406c9c2b9f331,forced_choice,101,225,"Navigating difficulties",25,"Coping skills",true,"Working for outcomes",45,"Setting and striving for goals",true,"Navigating difficulties",25,"Coping skills",true,"Working for outcomes",45,"Setting and striving for goals",true,2679,,,,,,,,,
65c1b23b2d7406c9c2b9f331,forced_choice,102,225,"Exercizing authority",55,"Leadership",true,"Eating and diet",83,"Eating and diet",false,"Eating and diet",83,"Eating and diet",false,"Exercizing authority",55,"Leadership",true,3510,,,,,,,,,
65c1b23b2d7406c9c2b9f331,forced_choice,103,225,"Relationships with unfamiliar people",8,"Relationships with unfamiliar people",false,"Respect for others",17,"Respect for others",false,"Respect for others",17,"Respect for others",false,"Relationships with unfamiliar people",8,"Relationships with unfamiliar people",false,2240,,,,,,,,,
65c1b23b2d7406c9c2b9f331,forced_choice,104,225,"Justice",60,"Fairness",true,"Relationships with teachers",11,"Relationships with teachers",false,"Justice",60,"Fairness",true,"Relationships with teachers",11,"Relationships with teachers",false,1816,,,,,,,,,
65c1b23b2d7406c9c2b9f331,forced_choice,105,225,"Gender expression",18,"Sexual behavior",true,"Mental regulation",34,"Managing thoughts",true,"Mental regulation",34,"Managing thoughts",true,"Gender expression",18,"Sexual behavior",true,1694,,,,,,,,,
65c1b23b2d7406c9c2b9f331,forced_choice,106,225,"Drowsiness",85,"Sleep and fatigue",true,"Requesting assistance",3,"Seeking help",true,"Drowsiness",85,"Sleep and fatigue",true,"Requesting assistance",3,"Seeking help",true,2992,,,,,,,,,
65c1b23b2d7406c9c2b9f331,forced_choice,107,225,"Navigating difficulties",25,"Coping skills",true,"Industriousness",67,"Work habits",true,"Navigating difficulties",25,"Coping skills",true,"Industriousness",67,"Work habits",true,2377,,,,,,,,,
65c1b23b2d7406c9c2b9f331,forced_choice,108,225,"Respectful",61,"Politeness",true,"Decision-making",36,"Decision-making",false,"Decision-making",36,"Decision-making",false,"Respectful",61,"Politeness",true,2422,,,,,,,,,
65c1b23b2d7406c9c2b9f331,forced_choice,109,225,"Drowsiness",85,"Sleep and fatigue",true,"Working for outcomes",45,"Setting and striving for goals",true,"Working for outcomes",45,"Setting and striving for goals",true,"Drowsiness",85,"Sleep and fatigue",true,2063,,,,,,,,,
65c1b23b2d7406c9c2b9f331,attention_check,111,,,,,,,,,,,,,,,,,,2953,"Managing emotions","Managing emotions",true,,,,,,
65c1b23b2d7406c9c2b9f331,forced_choice,110,225,"Resilience",28,"Resilience",false,"Drowsiness",85,"Sleep and fatigue",true,"Resilience",28,"Resilience",false,"Drowsiness",85,"Sleep and fatigue",true,3899,,,,,,,,,
65c1b23b2d7406c9c2b9f331,forced_choice,111,225,"Resilience",28,"Resilience",false,"Respectful",61,"Politeness",true,"Resilience",28,"Resilience",false,"Respectful",61,"Politeness",true,1515,,,,,,,,,
65c1b23b2d7406c9c2b9f331,forced_choice,112,225,"Mental health",84,"Emotional well-being",true,"Industriousness",67,"Work habits",true,"Mental health",84,"Emotional well-being",true,"Industriousness",67,"Work habits",true,2498,,,,,,,,,
65c1b23b2d7406c9c2b9f331,forced_choice,113,225,"Gender expression",18,"Sexual behavior",true,"Drowsiness",85,"Sleep and fatigue",true,"Drowsiness",85,"Sleep and fatigue",true,"Gender expression",18,"Sexual behavior",true,4618,,,,,,,,,
65c1b23b2d7406c9c2b9f331,forced_choice,114,225,"Mental health",84,"Emotional well-being",true,"Working for outcomes",45,"Setting and striving for goals",true,"Mental health",84,"Emotional well-being",true,"Working for outcomes",45,"Setting and striving for goals",true,2670,,,,,,,,,
65c1b23b2d7406c9c2b9f331,forced_choice,115,225,"Mental regulation",34,"Managing thoughts",true,"Eating and diet",83,"Eating and diet",false,"Mental regulation",34,"Managing thoughts",true,"Eating and diet",83,"Eating and diet",false,3112,,,,,,,,,
65c1b23b2d7406c9c2b9f331,forced_choice,116,225,"Requesting assistance",3,"Seeking help",true,"Exercizing authority",55,"Leadership",true,"Requesting assistance",3,"Seeking help",true,"Exercizing authority",55,"Leadership",true,1926,,,,,,,,,
65c1b23b2d7406c9c2b9f331,forced_choice,117,225,"Industriousness",67,"Work habits",true,"Interpersonal ease",13,"Comfort in social situations",true,"Industriousness",67,"Work habits",true,"Interpersonal ease",13,"Comfort in social situations",true,1536,,,,,,,,,
65c1b23b2d7406c9c2b9f331,forced_choice,118,225,"Working for outcomes",45,"Setting and striving for goals",true,"Managing behavior",0,"Managing behavior",false,"Working for outcomes",45,"Setting and striving for goals",true,"Managing behavior",0,"Managing behavior",false,1712,,,,,,,,,
65c1b23b2d7406c9c2b9f331,forced_choice,119,225,"Gender expression",18,"Sexual behavior",true,"Respect for others",17,"Respect for others",false,"Respect for others",17,"Respect for others",false,"Gender expression",18,"Sexual behavior",true,2803,,,,,,,,,
65c1b23b2d7406c9c2b9f331,forced_choice,120,225,"Interpersonal ease",13,"Comfort in social situations",true,"Resilience",28,"Resilience",false,"Resilience",28,"Resilience",false,"Interpersonal ease",13,"Comfort in social situations",true,1325,,,,,,,,,
65c1b23b2d7406c9c2b9f331,forced_choice,121,225,"Gender expression",18,"Sexual behavior",true,"Working for outcomes",45,"Setting and striving for goals",true,"Working for outcomes",45,"Setting and striving for goals",true,"Gender expression",18,"Sexual behavior",true,1463,,,,,,,,,
65c1b23b2d7406c9c2b9f331,forced_choice,122,225,"Relationships with teachers",11,"Relationships with teachers",false,"Restraint",75,"Self-control",true,"Relationships with teachers",11,"Relationships with teachers",false,"Restraint",75,"Self-control",true,3382,,,,,,,,,
65c1b23b2d7406c9c2b9f331,forced_choice,123,225,"Respectful",61,"Politeness",true,"Social communication",14,"Social communication",false,"Social communication",14,"Social communication",false,"Respectful",61,"Politeness",true,2115,,,,,,,,,
65c1b23b2d7406c9c2b9f331,forced_choice,124,225,"Willingness to try new things",57,"Willingness to try new things",false,"Navigating difficulties",25,"Coping skills",true,"Willingness to try new things",57,"Willingness to try new things",false,"Navigating difficulties",25,"Coping skills",true,1762,,,,,,,,,
65c1b23b2d7406c9c2b9f331,forced_choice,125,225,"Social connections",9,"Relationships with peers",true,"Organization",43,"Organization",false,"Social connections",9,"Relationships with peers",true,"Organization",43,"Organization",false,2577,,,,,,,,,
65c1b23b2d7406c9c2b9f331,forced_choice,126,225,"Restraint",75,"Self-control",true,"Gender expression",18,"Sexual behavior",true,"Gender expression",18,"Sexual behavior",true,"Restraint",75,"Self-control",true,2672,,,,,,,,,
65c1b23b2d7406c9c2b9f331,forced_choice,127,225,"Willingness to try new things",57,"Willingness to try new things",false,"Working for outcomes",45,"Setting and striving for goals",true,"Willingness to try new things",57,"Willingness to try new things",false,"Working for outcomes",45,"Setting and striving for goals",true,1747,,,,,,,,,
65c1b23b2d7406c9c2b9f331,forced_choice,128,225,"Drowsiness",85,"Sleep and fatigue",true,"Eating and diet",83,"Eating and diet",false,"Eating and diet",83,"Eating and diet",false,"Drowsiness",85,"Sleep and fatigue",true,2429,,,,,,,,,
65c1b23b2d7406c9c2b9f331,forced_choice,129,225,"Gender expression",18,"Sexual behavior",true,"Willingness to try new things",57,"Willingness to try new things",false,"Willingness to try new things",57,"Willingness to try new things",false,"Gender expression",18,"Sexual behavior",true,1455,,,,,,,,,
65c1b23b2d7406c9c2b9f331,forced_choice,130,225,"Social communication",14,"Social communication",false,"Gender expression",18,"Sexual behavior",true,"Social communication",14,"Social communication",false,"Gender expression",18,"Sexual behavior",true,1829,,,,,,,,,
65c1b23b2d7406c9c2b9f331,forced_choice,131,225,"Working for outcomes",45,"Setting and striving for goals",true,"Mental regulation",34,"Managing thoughts",true,"Mental regulation",34,"Managing thoughts",true,"Working for outcomes",45,"Setting and striving for goals",true,3561,,,,,,,,,
65c1b23b2d7406c9c2b9f331,forced_choice,132,225,"Personal observation",77,"Self-monitoring",true,"Relationships with unfamiliar people",8,"Relationships with unfamiliar people",false,"Personal observation",77,"Self-monitoring",true,"Relationships with unfamiliar people",8,"Relationships with unfamiliar people",false,1590,,,,,,,,,
65c1b23b2d7406c9c2b9f331,forced_choice,133,225,"Social connections",9,"Relationships with peers",true,"Resilience",28,"Resilience",false,"Resilience",28,"Resilience",false,"Social connections",9,"Relationships with peers",true,1394,,,,,,,,,
65c1b23b2d7406c9c2b9f331,forced_choice,134,225,"Restraint",75,"Self-control",true,"Mental regulation",34,"Managing thoughts",true,"Mental regulation",34,"Managing thoughts",true,"Restraint",75,"Self-control",true,1763,,,,,,,,,
65c1b23b2d7406c9c2b9f331,forced_choice,135,225,"Social connections",9,"Relationships with peers",true,"Requesting assistance",3,"Seeking help",true,"Social connections",9,"Relationships with peers",true,"Requesting assistance",3,"Seeking help",true,1686,,,,,,,,,
65c1b23b2d7406c9c2b9f331,forced_choice,136,225,"Managing behavior",0,"Managing behavior",false,"Justice",60,"Fairness",true,"Managing behavior",0,"Managing behavior",false,"Justice",60,"Fairness",true,1941,,,,,,,,,
65c1b23b2d7406c9c2b9f331,forced_choice,137,225,"Industriousness",67,"Work habits",true,"Eating and diet",83,"Eating and diet",false,"Industriousness",67,"Work habits",true,"Eating and diet",83,"Eating and diet",false,1568,,,,,,,,,
65c1b23b2d7406c9c2b9f331,forced_choice,138,225,"Respectful",61,"Politeness",true,"Working for outcomes",45,"Setting and striving for goals",true,"Working for outcomes",45,"Setting and striving for goals",true,"Respectful",61,"Politeness",true,1643,,,,,,,,,
65c1b23b2d7406c9c2b9f331,forced_choice,139,225,"Requesting assistance",3,"Seeking help",true,"Respect for others",17,"Respect for others",false,"Respect for others",17,"Respect for others",false,"Requesting assistance",3,"Seeking help",true,2439,,,,,,,,,
65c1b23b2d7406c9c2b9f331,forced_choice,140,225,"Willingness to try new things",57,"Willingness to try new things",false,"Restraint",75,"Self-control",true,"Willingness to try new things",57,"Willingness to try new things",false,"Restraint",75,"Self-control",true,3363,,,,,,,,,
65c1b23b2d7406c9c2b9f331,forced_choice,141,225,"Justice",60,"Fairness",true,"Personal observation",77,"Self-monitoring",true,"Personal observation",77,"Self-monitoring",true,"Justice",60,"Fairness",true,2191,,,,,,,,,
65c1b23b2d7406c9c2b9f331,forced_choice,142,225,"Relationships with unfamiliar people",8,"Relationships with unfamiliar people",false,"Trust in oneself",80,"Self-confidence",true,"Trust in oneself",80,"Self-confidence",true,"Relationships with unfamiliar people",8,"Relationships with unfamiliar people",false,1829,,,,,,,,,
65c1b23b2d7406c9c2b9f331,forced_choice,143,225,"Respect for others",17,"Respect for others",false,"Eating and diet",83,"Eating and diet",false,"Eating and diet",83,"Eating and diet",false,"Respect for others",17,"Respect for others",false,1980,,,,,,,,,
65c1b23b2d7406c9c2b9f331,forced_choice,144,225,"Exercizing authority",55,"Leadership",true,"Industriousness",67,"Work habits",true,"Industriousness",67,"Work habits",true,"Exercizing authority",55,"Leadership",true,1596,,,,,,,,,
65c1b23b2d7406c9c2b9f331,forced_choice,145,225,"Requesting assistance",3,"Seeking help",true,"Willingness to try new things",57,"Willingness to try new things",false,"Willingness to try new things",57,"Willingness to try new things",false,"Requesting assistance",3,"Seeking help",true,1582,,,,,,,,,
65c1b23b2d7406c9c2b9f331,forced_choice,146,225,"Willingness to try new things",57,"Willingness to try new things",false,"Relationships with unfamiliar people",8,"Relationships with unfamiliar people",false,"Willingness to try new things",57,"Willingness to try new things",false,"Relationships with unfamiliar people",8,"Relationships with unfamiliar people",false,1552,,,,,,,,,
65c1b23b2d7406c9c2b9f331,forced_choice,147,225,"Exercizing authority",55,"Leadership",true,"Decision-making",36,"Decision-making",false,"Decision-making",36,"Decision-making",false,"Exercizing authority",55,"Leadership",true,1596,,,,,,,,,
65c1b23b2d7406c9c2b9f331,forced_choice,148,225,"Mental regulation",34,"Managing thoughts",true,"Decision-making",36,"Decision-making",false,"Mental regulation",34,"Managing thoughts",true,"Decision-making",36,"Decision-making",false,1578,,,,,,,,,
65c1b23b2d7406c9c2b9f331,forced_choice,149,225,"Exercizing authority",55,"Leadership",true,"Gender expression",18,"Sexual behavior",true,"Gender expression",18,"Sexual behavior",true,"Exercizing authority",55,"Leadership",true,2788,,,,,,,,,
65c1b23b2d7406c9c2b9f331,forced_choice,150,225,"Social connections",9,"Relationships with peers",true,"Decision-making",36,"Decision-making",false,"Decision-making",36,"Decision-making",false,"Social connections",9,"Relationships with peers",true,4295,,,,,,,,,
65c1b23b2d7406c9c2b9f331,forced_choice,151,225,"Trust in oneself",80,"Self-confidence",true,"Interpersonal ease",13,"Comfort in social situations",true,"Trust in oneself",80,"Self-confidence",true,"Interpersonal ease",13,"Comfort in social situations",true,2605,,,,,,,,,
65c1b23b2d7406c9c2b9f331,forced_choice,152,225,"Social communication",14,"Social communication",false,"Organization",43,"Organization",false,"Social communication",14,"Social communication",false,"Organization",43,"Organization",false,1604,,,,,,,,,
65c1b23b2d7406c9c2b9f331,forced_choice,153,225,"Relationships with unfamiliar people",8,"Relationships with unfamiliar people",false,"Organization",43,"Organization",false,"Organization",43,"Organization",false,"Relationships with unfamiliar people",8,"Relationships with unfamiliar people",false,1716,,,,,,,,,
65c1b23b2d7406c9c2b9f331,forced_choice,154,225,"Requesting assistance",3,"Seeking help",true,"Relationships with teachers",11,"Relationships with teachers",false,"Requesting assistance",3,"Seeking help",true,"Relationships with teachers",11,"Relationships with teachers",false,1890,,,,,,,,,
65c1b23b2d7406c9c2b9f331,forced_choice,155,225,"Restraint",75,"Self-control",true,"Navigating difficulties",25,"Coping skills",true,"Navigating difficulties",25,"Coping skills",true,"Restraint",75,"Self-control",true,1665,,,,,,,,,
65c1b23b2d7406c9c2b9f331,forced_choice,156,225,"Exercizing authority",55,"Leadership",true,"Justice",60,"Fairness",true,"Justice",60,"Fairness",true,"Exercizing authority",55,"Leadership",true,2046,,,,,,,,,
65c1b23b2d7406c9c2b9f331,forced_choice,157,225,"Interpersonal ease",13,"Comfort in social situations",true,"Working for outcomes",45,"Setting and striving for goals",true,"Working for outcomes",45,"Setting and striving for goals",true,"Interpersonal ease",13,"Comfort in social situations",true,1725,,,,,,,,,
65c1b23b2d7406c9c2b9f331,forced_choice,158,225,"Personal observation",77,"Self-monitoring",true,"Mental health",84,"Emotional well-being",true,"Mental health",84,"Emotional well-being",true,"Personal observation",77,"Self-monitoring",true,1521,,,,,,,,,
65c1b23b2d7406c9c2b9f331,forced_choice,159,225,"Industriousness",67,"Work habits",true,"Trust in oneself",80,"Self-confidence",true,"Trust in oneself",80,"Self-confidence",true,"Industriousness",67,"Work habits",true,2582,,,,,,,,,
65c1b23b2d7406c9c2b9f331,forced_choice,160,225,"Respect for others",17,"Respect for others",false,"Personal observation",77,"Self-monitoring",true,"Personal observation",77,"Self-monitoring",true,"Respect for others",17,"Respect for others",false,2232,,,,,,,,,
65c1b23b2d7406c9c2b9f331,forced_choice,161,225,"Social communication",14,"Social communication",false,"Decision-making",36,"Decision-making",false,"Decision-making",36,"Decision-making",false,"Social communication",14,"Social communication",false,2226,,,,,,,,,
65c1b23b2d7406c9c2b9f331,forced_choice,162,225,"Social communication",14,"Social communication",false,"Restraint",75,"Self-control",true,"Social communication",14,"Social communication",false,"Restraint",75,"Self-control",true,1228,,,,,,,,,
65c1b23b2d7406c9c2b9f331,forced_choice,163,225,"Restraint",75,"Self-control",true,"Social connections",9,"Relationships with peers",true,"Social connections",9,"Relationships with peers",true,"Restraint",75,"Self-control",true,1297,,,,,,,,,
65c1b23b2d7406c9c2b9f331,forced_choice,164,225,"Interpersonal ease",13,"Comfort in social situations",true,"Drowsiness",85,"Sleep and fatigue",true,"Drowsiness",85,"Sleep and fatigue",true,"Interpersonal ease",13,"Comfort in social situations",true,3384,,,,,,,,,
65c1b23b2d7406c9c2b9f331,attention_check,167,,,,,,,,,,,,,,,,,,3537,"Paying attention","Paying attention",true,,,,,,
65c1b23b2d7406c9c2b9f331,forced_choice,165,225,"Resilience",28,"Resilience",false,"Navigating difficulties",25,"Coping skills",true,"Resilience",28,"Resilience",false,"Navigating difficulties",25,"Coping skills",true,4561,,,,,,,,,
65c1b23b2d7406c9c2b9f331,forced_choice,166,225,"Trust in oneself",80,"Self-confidence",true,"Mental health",84,"Emotional well-being",true,"Mental health",84,"Emotional well-being",true,"Trust in oneself",80,"Self-confidence",true,1920,,,,,,,,,
65c1b23b2d7406c9c2b9f331,forced_choice,167,225,"Respect for others",17,"Respect for others",false,"Interpersonal ease",13,"Comfort in social situations",true,"Interpersonal ease",13,"Comfort in social situations",true,"Respect for others",17,"Respect for others",false,1896,,,,,,,,,
65c1b23b2d7406c9c2b9f331,forced_choice,168,225,"Relationships with teachers",11,"Relationships with teachers",false,"Personal observation",77,"Self-monitoring",true,"Personal observation",77,"Self-monitoring",true,"Relationships with teachers",11,"Relationships with teachers",false,1440,,,,,,,,,
65c1b23b2d7406c9c2b9f331,forced_choice,169,225,"Organization",43,"Organization",false,"Resilience",28,"Resilience",false,"Resilience",28,"Resilience",false,"Organization",43,"Organization",false,1618,,,,,,,,,
65c1b23b2d7406c9c2b9f331,forced_choice,170,225,"Mental regulation",34,"Managing thoughts",true,"Social connections",9,"Relationships with peers",true,"Mental regulation",34,"Managing thoughts",true,"Social connections",9,"Relationships with peers",true,2993,,,,,,,,,
65c1b23b2d7406c9c2b9f331,forced_choice,171,225,"Respect for others",17,"Respect for others",false,"Decision-making",36,"Decision-making",false,"Decision-making",36,"Decision-making",false,"Respect for others",17,"Respect for others",false,1416,,,,,,,,,
65c1b23b2d7406c9c2b9f331,forced_choice,172,225,"Relationships with unfamiliar people",8,"Relationships with unfamiliar people",false,"Social communication",14,"Social communication",false,"Social communication",14,"Social communication",false,"Relationships with unfamiliar people",8,"Relationships with unfamiliar people",false,1378,,,,,,,,,
65c1b23b2d7406c9c2b9f331,forced_choice,173,225,"Requesting assistance",3,"Seeking help",true,"Respectful",61,"Politeness",true,"Requesting assistance",3,"Seeking help",true,"Respectful",61,"Politeness",true,3181,,,,,,,,,
65c1b23b2d7406c9c2b9f331,forced_choice,174,225,"Interpersonal ease",13,"Comfort in social situations",true,"Requesting assistance",3,"Seeking help",true,"Interpersonal ease",13,"Comfort in social situations",true,"Requesting assistance",3,"Seeking help",true,2325,,,,,,,,,
65c1b23b2d7406c9c2b9f331,forced_choice,175,225,"Mental regulation",34,"Managing thoughts",true,"Industriousness",67,"Work habits",true,"Mental regulation",34,"Managing thoughts",true,"Industriousness",67,"Work habits",true,1492,,,,,,,,,
65c1b23b2d7406c9c2b9f331,forced_choice,176,225,"Industriousness",67,"Work habits",true,"Gender expression",18,"Sexual behavior",true,"Industriousness",67,"Work habits",true,"Gender expression",18,"Sexual behavior",true,1366,,,,,,,,,
65c1b23b2d7406c9c2b9f331,forced_choice,177,225,"Managing behavior",0,"Managing behavior",false,"Eating and diet",83,"Eating and diet",false,"Managing behavior",0,"Managing behavior",false,"Eating and diet",83,"Eating and diet",false,1564,,,,,,,,,
65c1b23b2d7406c9c2b9f331,forced_choice,178,225,"Eating and diet",83,"Eating and diet",false,"Mental health",84,"Emotional well-being",true,"Mental health",84,"Emotional well-being",true,"Eating and diet",83,"Eating and diet",false,1884,,,,,,,,,
65c1b23b2d7406c9c2b9f331,forced_choice,179,225,"Interpersonal ease",13,"Comfort in social situations",true,"Organization",43,"Organization",false,"Interpersonal ease",13,"Comfort in social situations",true,"Organization",43,"Organization",false,2585,,,,,,,,,
65c1b23b2d7406c9c2b9f331,forced_choice,180,225,"Managing behavior",0,"Managing behavior",false,"Organization",43,"Organization",false,"Managing behavior",0,"Managing behavior",false,"Organization",43,"Organization",false,1710,,,,,,,,,
65c1b23b2d7406c9c2b9f331,forced_choice,181,225,"Working for outcomes",45,"Setting and striving for goals",true,"Resilience",28,"Resilience",false,"Resilience",28,"Resilience",false,"Working for outcomes",45,"Setting and striving for goals",true,1732,,,,,,,,,
65c1b23b2d7406c9c2b9f331,forced_choice,182,225,"Mental health",84,"Emotional well-being",true,"Restraint",75,"Self-control",true,"Mental health",84,"Emotional well-being",true,"Restraint",75,"Self-control",true,1665,,,,,,,,,
65c1b23b2d7406c9c2b9f331,forced_choice,183,225,"Justice",60,"Fairness",true,"Navigating difficulties",25,"Coping skills",true,"Navigating difficulties",25,"Coping skills",true,"Justice",60,"Fairness",true,1483,,,,,,,,,
65c1b23b2d7406c9c2b9f331,forced_choice,184,225,"Personal observation",77,"Self-monitoring",true,"Navigating difficulties",25,"Coping skills",true,"Navigating difficulties",25,"Coping skills",true,"Personal observation",77,"Self-monitoring",true,1537,,,,,,,,,
65c1b23b2d7406c9c2b9f331,forced_choice,185,225,"Drowsiness",85,"Sleep and fatigue",true,"Restraint",75,"Self-control",true,"Drowsiness",85,"Sleep and fatigue",true,"Restraint",75,"Self-control",true,4186,,,,,,,,,
65c1b23b2d7406c9c2b9f331,forced_choice,186,225,"Decision-making",36,"Decision-making",false,"Restraint",75,"Self-control",true,"Decision-making",36,"Decision-making",false,"Restraint",75,"Self-control",true,1649,,,,,,,,,
65c1b23b2d7406c9c2b9f331,forced_choice,187,225,"Decision-making",36,"Decision-making",false,"Industriousness",67,"Work habits",true,"Decision-making",36,"Decision-making",false,"Industriousness",67,"Work habits",true,3365,,,,,,,,,
65c1b23b2d7406c9c2b9f331,forced_choice,188,225,"Navigating difficulties",25,"Coping skills",true,"Gender expression",18,"Sexual behavior",true,"Navigating difficulties",25,"Coping skills",true,"Gender expression",18,"Sexual behavior",true,1455,,,,,,,,,
65c1b23b2d7406c9c2b9f331,forced_choice,189,225,"Industriousness",67,"Work habits",true,"Working for outcomes",45,"Setting and striving for goals",true,"Working for outcomes",45,"Setting and striving for goals",true,"Industriousness",67,"Work habits",true,2901,,,,,,,,,
65c1b23b2d7406c9c2b9f331,forced_choice,190,225,"Social connections",9,"Relationships with peers",true,"Industriousness",67,"Work habits",true,"Industriousness",67,"Work habits",true,"Social connections",9,"Relationships with peers",true,2536,,,,,,,,,
65c1b23b2d7406c9c2b9f331,forced_choice,191,225,"Working for outcomes",45,"Setting and striving for goals",true,"Justice",60,"Fairness",true,"Working for outcomes",45,"Setting and striving for goals",true,"Justice",60,"Fairness",true,1814,,,,,,,,,
65c1b23b2d7406c9c2b9f331,forced_choice,192,225,"Trust in oneself",80,"Self-confidence",true,"Willingness to try new things",57,"Willingness to try new things",false,"Willingness to try new things",57,"Willingness to try new things",false,"Trust in oneself",80,"Self-confidence",true,1500,,,,,,,,,
65c1b23b2d7406c9c2b9f331,forced_choice,193,225,"Exercizing authority",55,"Leadership",true,"Social communication",14,"Social communication",false,"Social communication",14,"Social communication",false,"Exercizing authority",55,"Leadership",true,1422,,,,,,,,,
65c1b23b2d7406c9c2b9f331,forced_choice,194,225,"Industriousness",67,"Work habits",true,"Restraint",75,"Self-control",true,"Industriousness",67,"Work habits",true,"Restraint",75,"Self-control",true,1808,,,,,,,,,
65c1b23b2d7406c9c2b9f331,forced_choice,195,225,"Drowsiness",85,"Sleep and fatigue",true,"Relationships with teachers",11,"Relationships with teachers",false,"Drowsiness",85,"Sleep and fatigue",true,"Relationships with teachers",11,"Relationships with teachers",false,1387,,,,,,,,,
65c1b23b2d7406c9c2b9f331,forced_choice,196,225,"Relationships with teachers",11,"Relationships with teachers",false,"Eating and diet",83,"Eating and diet",false,"Eating and diet",83,"Eating and diet",false,"Relationships with teachers",11,"Relationships with teachers",false,2453,,,,,,,,,
65c1b23b2d7406c9c2b9f331,forced_choice,197,225,"Respect for others",17,"Respect for others",false,"Resilience",28,"Resilience",false,"Resilience",28,"Resilience",false,"Respect for others",17,"Respect for others",false,1401,,,,,,,,,
65c1b23b2d7406c9c2b9f331,forced_choice,198,225,"Relationships with teachers",11,"Relationships with teachers",false,"Working for outcomes",45,"Setting and striving for goals",true,"Working for outcomes",45,"Setting and striving for goals",true,"Relationships with teachers",11,"Relationships with teachers",false,1912,,,,,,,,,
65c1b23b2d7406c9c2b9f331,forced_choice,199,225,"Decision-making",36,"Decision-making",false,"Justice",60,"Fairness",true,"Decision-making",36,"Decision-making",false,"Justice",60,"Fairness",true,1657,,,,,,,,,
65c1b23b2d7406c9c2b9f331,forced_choice,200,225,"Mental regulation",34,"Managing thoughts",true,"Respect for others",17,"Respect for others",false,"Mental regulation",34,"Managing thoughts",true,"Respect for others",17,"Respect for others",false,1393,,,,,,,,,
65c1b23b2d7406c9c2b9f331,forced_choice,201,225,"Personal observation",77,"Self-monitoring",true,"Industriousness",67,"Work habits",true,"Industriousness",67,"Work habits",true,"Personal observation",77,"Self-monitoring",true,2039,,,,,,,,,
65c1b23b2d7406c9c2b9f331,forced_choice,202,225,"Resilience",28,"Resilience",false,"Relationships with unfamiliar people",8,"Relationships with unfamiliar people",false,"Resilience",28,"Resilience",false,"Relationships with unfamiliar people",8,"Relationships with unfamiliar people",false,1463,,,,,,,,,
65c1b23b2d7406c9c2b9f331,forced_choice,203,225,"Respect for others",17,"Respect for others",false,"Restraint",75,"Self-control",true,"Respect for others",17,"Respect for others",false,"Restraint",75,"Self-control",true,1784,,,,,,,,,
65c1b23b2d7406c9c2b9f331,forced_choice,204,225,"Justice",60,"Fairness",true,"Relationships with unfamiliar people",8,"Relationships with unfamiliar people",false,"Justice",60,"Fairness",true,"Relationships with unfamiliar people",8,"Relationships with unfamiliar people",false,2003,,,,,,,,,
65c1b23b2d7406c9c2b9f331,forced_choice,205,225,"Trust in oneself",80,"Self-confidence",true,"Justice",60,"Fairness",true,"Trust in oneself",80,"Self-confidence",true,"Justice",60,"Fairness",true,1721,,,,,,,,,
65c1b23b2d7406c9c2b9f331,forced_choice,206,225,"Drowsiness",85,"Sleep and fatigue",true,"Trust in oneself",80,"Self-confidence",true,"Trust in oneself",80,"Self-confidence",true,"Drowsiness",85,"Sleep and fatigue",true,1719,,,,,,,,,
65c1b23b2d7406c9c2b9f331,forced_choice,207,225,"Mental health",84,"Emotional well-being",true,"Justice",60,"Fairness",true,"Mental health",84,"Emotional well-being",true,"Justice",60,"Fairness",true,1846,,,,,,,,,
65c1b23b2d7406c9c2b9f331,forced_choice,208,225,"Mental regulation",34,"Managing thoughts",true,"Requesting assistance",3,"Seeking help",true,"Mental regulation",34,"Managing thoughts",true,"Requesting assistance",3,"Seeking help",true,1529,,,,,,,,,
65c1b23b2d7406c9c2b9f331,forced_choice,209,225,"Decision-making",36,"Decision-making",false,"Gender expression",18,"Sexual behavior",true,"Decision-making",36,"Decision-making",false,"Gender expression",18,"Sexual behavior",true,1363,,,,,,,,,
65c1b23b2d7406c9c2b9f331,forced_choice,210,225,"Decision-making",36,"Decision-making",false,"Personal observation",77,"Self-monitoring",true,"Decision-making",36,"Decision-making",false,"Personal observation",77,"Self-monitoring",true,2385,,,,,,,,,
65c1b23b2d7406c9c2b9f331,forced_choice,211,225,"Social communication",14,"Social communication",false,"Respect for others",17,"Respect for others",false,"Social communication",14,"Social communication",false,"Respect for others",17,"Respect for others",false,1455,,,,,,,,,
65c1b23b2d7406c9c2b9f331,forced_choice,212,225,"Resilience",28,"Resilience",false,"Mental regulation",34,"Managing thoughts",true,"Resilience",28,"Resilience",false,"Mental regulation",34,"Managing thoughts",true,2070,,,,,,,,,
65c1b23b2d7406c9c2b9f331,forced_choice,213,225,"Navigating difficulties",25,"Coping skills",true,"Respectful",61,"Politeness",true,"Navigating difficulties",25,"Coping skills",true,"Respectful",61,"Politeness",true,1498,,,,,,,,,
65c1b23b2d7406c9c2b9f331,forced_choice,214,225,"Relationships with teachers",11,"Relationships with teachers",false,"Industriousness",67,"Work habits",true,"Relationships with teachers",11,"Relationships with teachers",false,"Industriousness",67,"Work habits",true,1604,,,,,,,,,
65c1b23b2d7406c9c2b9f331,forced_choice,215,225,"Respect for others",17,"Respect for others",false,"Respectful",61,"Politeness",true,"Respect for others",17,"Respect for others",false,"Respectful",61,"Politeness",true,3473,,,,,,,,,
65c1b23b2d7406c9c2b9f331,forced_choice,216,225,"Personal observation",77,"Self-monitoring",true,"Mental regulation",34,"Managing thoughts",true,"Mental regulation",34,"Managing thoughts",true,"Personal observation",77,"Self-monitoring",true,1648,,,,,,,,,
65c1b23b2d7406c9c2b9f331,forced_choice,217,225,"Requesting assistance",3,"Seeking help",true,"Gender expression",18,"Sexual behavior",true,"Gender expression",18,"Sexual behavior",true,"Requesting assistance",3,"Seeking help",true,2243,,,,,,,,,
65c1b23b2d7406c9c2b9f331,forced_choice,218,225,"Social communication",14,"Social communication",false,"Requesting assistance",3,"Seeking help",true,"Social communication",14,"Social communication",false,"Requesting assistance",3,"Seeking help",true,9045,,,,,,,,,
65c1b23b2d7406c9c2b9f331,forced_choice,219,225,"Mental regulation",34,"Managing thoughts",true,"Willingness to try new things",57,"Willingness to try new things",false,"Willingness to try new things",57,"Willingness to try new things",false,"Mental regulation",34,"Managing thoughts",true,1453,,,,,,,,,
65c1b23b2d7406c9c2b9f331,attention_check,223,,,,,,,,,,,,,,,,,,2940,"Social skills","Social skills",true,,,,,,
65c1b23b2d7406c9c2b9f331,forced_choice,220,225,"Working for outcomes",45,"Setting and striving for goals",true,"Organization",43,"Organization",false,"Working for outcomes",45,"Setting and striving for goals",true,"Organization",43,"Organization",false,8916,,,,,,,,,
65c1b23b2d7406c9c2b9f331,forced_choice,221,225,"Requesting assistance",3,"Seeking help",true,"Restraint",75,"Self-control",true,"Requesting assistance",3,"Seeking help",true,"Restraint",75,"Self-control",true,2152,,,,,,,,,
65c1b23b2d7406c9c2b9f331,forced_choice,222,225,"Eating and diet",83,"Eating and diet",false,"Organization",43,"Organization",false,"Eating and diet",83,"Eating and diet",false,"Organization",43,"Organization",false,2955,,,,,,,,,
65c1b23b2d7406c9c2b9f331,forced_choice,223,225,"Mental regulation",34,"Managing thoughts",true,"Navigating difficulties",25,"Coping skills",true,"Navigating difficulties",25,"Coping skills",true,"Mental regulation",34,"Managing thoughts",true,2301,,,,,,,,,
65c1b23b2d7406c9c2b9f331,forced_choice,224,225,"Interpersonal ease",13,"Comfort in social situations",true,"Restraint",75,"Self-control",true,"Interpersonal ease",13,"Comfort in social situations",true,"Restraint",75,"Self-control",true,2677,,,,,,,,,
65c1b23b2d7406c9c2b9f331,forced_choice,225,225,"Justice",60,"Fairness",true,"Eating and diet",83,"Eating and diet",false,"Eating and diet",83,"Eating and diet",false,"Justice",60,"Fairness",true,2174,,,,,,,,,
65c1b23b2d7406c9c2b9f331,forced_choice,226,225,"Industriousness",67,"Work habits",true,"Relationships with unfamiliar people",8,"Relationships with unfamiliar people",false,"Industriousness",67,"Work habits",true,"Relationships with unfamiliar people",8,"Relationships with unfamiliar people",false,1868,,,,,,,,,
65c1b23b2d7406c9c2b9f331,forced_choice,227,225,"Resilience",28,"Resilience",false,"Personal observation",77,"Self-monitoring",true,"Resilience",28,"Resilience",false,"Personal observation",77,"Self-monitoring",true,1506,,,,,,,,,
65c1b23b2d7406c9c2b9f331,forced_choice,228,225,"Eating and diet",83,"Eating and diet",false,"Decision-making",36,"Decision-making",false,"Decision-making",36,"Decision-making",false,"Eating and diet",83,"Eating and diet",false,4049,,,,,,,,,
65c1b23b2d7406c9c2b9f331,forced_choice,229,225,"Willingness to try new things",57,"Willingness to try new things",false,"Exercizing authority",55,"Leadership",true,"Willingness to try new things",57,"Willingness to try new things",false,"Exercizing authority",55,"Leadership",true,1874,,,,,,,,,
65c1b23b2d7406c9c2b9f331,forced_choice,230,225,"Social connections",9,"Relationships with peers",true,"Exercizing authority",55,"Leadership",true,"Social connections",9,"Relationships with peers",true,"Exercizing authority",55,"Leadership",true,1762,,,,,,,,,
65c1b23b2d7406c9c2b9f331,forced_choice,231,225,"Mental health",84,"Emotional well-being",true,"Requesting assistance",3,"Seeking help",true,"Mental health",84,"Emotional well-being",true,"Requesting assistance",3,"Seeking help",true,1627,,,,,,,,,
65c1b23b2d7406c9c2b9f331,forced_choice,232,225,"Managing behavior",0,"Managing behavior",false,"Interpersonal ease",13,"Comfort in social situations",true,"Managing behavior",0,"Managing behavior",false,"Interpersonal ease",13,"Comfort in social situations",true,4116,,,,,,,,,
65c1b23b2d7406c9c2b9f331,forced_choice,233,225,"Relationships with teachers",11,"Relationships with teachers",false,"Resilience",28,"Resilience",false,"Resilience",28,"Resilience",false,"Relationships with teachers",11,"Relationships with teachers",false,3540,,,,,,,,,
65c1b23b2d7406c9c2b9f331,forced_choice,234,225,"Willingness to try new things",57,"Willingness to try new things",false,"Social communication",14,"Social communication",false,"Willingness to try new things",57,"Willingness to try new things",false,"Social communication",14,"Social communication",false,1972,,,,,,,,,
65c1b23b2d7406c9c2b9f331,forced_choice,235,225,"Industriousness",67,"Work habits",true,"Resilience",28,"Resilience",false,"Resilience",28,"Resilience",false,"Industriousness",67,"Work habits",true,3164,,,,,,,,,
65c1b23b2d7406c9c2b9f331,forced_choice,236,225,"Social communication",14,"Social communication",false,"Justice",60,"Fairness",true,"Social communication",14,"Social communication",false,"Justice",60,"Fairness",true,1717,,,,,,,,,
65c1b23b2d7406c9c2b9f331,forced_choice,237,225,"Managing behavior",0,"Managing behavior",false,"Willingness to try new things",57,"Willingness to try new things",false,"Willingness to try new things",57,"Willingness to try new things",false,"Managing behavior",0,"Managing behavior",false,1859,,,,,,,,,
65c1b23b2d7406c9c2b9f331,forced_choice,238,225,"Personal observation",77,"Self-monitoring",true,"Social connections",9,"Relationships with peers",true,"Social connections",9,"Relationships with peers",true,"Personal observation",77,"Self-monitoring",true,1619,,,,,,,,,
65c1b23b2d7406c9c2b9f331,forced_choice,239,225,"Eating and diet",83,"Eating and diet",false,"Willingness to try new things",57,"Willingness to try new things",false,"Willingness to try new things",57,"Willingness to try new things",false,"Eating and diet",83,"Eating and diet",false,1379,,,,,,,,,
65c1b23b2d7406c9c2b9f331,forced_choice,240,225,"Gender expression",18,"Sexual behavior",true,"Social connections",9,"Relationships with peers",true,"Social connections",9,"Relationships with peers",true,"Gender expression",18,"Sexual behavior",true,2244,,,,,,,,,
65c1b23b2d7406c9c2b9f331,forced_choice,241,225,"Mental health",84,"Emotional well-being",true,"Willingness to try new things",57,"Willingness to try new things",false,"Willingness to try new things",57,"Willingness to try new things",false,"Mental health",84,"Emotional well-being",true,1475,,,,,,,,,
65c1b23b2d7406c9c2b9f331,forced_choice,242,225,"Organization",43,"Organization",false,"Respect for others",17,"Respect for others",false,"Respect for others",17,"Respect for others",false,"Organization",43,"Organization",false,3270,,,,,,,,,
65c1b23b2d7406c9c2b9f331,forced_choice,243,225,"Exercizing authority",55,"Leadership",true,"Restraint",75,"Self-control",true,"Exercizing authority",55,"Leadership",true,"Restraint",75,"Self-control",true,3796,,,,,,,,,
65c1b23b2d7406c9c2b9f331,forced_choice,244,225,"Mental health",84,"Emotional well-being",true,"Respect for others",17,"Respect for others",false,"Mental health",84,"Emotional well-being",true,"Respect for others",17,"Respect for others",false,1766,,,,,,,,,
65c1b23b2d7406c9c2b9f331,forced_choice,245,225,"Respect for others",17,"Respect for others",false,"Working for outcomes",45,"Setting and striving for goals",true,"Working for outcomes",45,"Setting and striving for goals",true,"Respect for others",17,"Respect for others",false,1943,,,,,,,,,
65c1b23b2d7406c9c2b9f331,forced_choice,246,225,"Working for outcomes",45,"Setting and striving for goals",true,"Requesting assistance",3,"Seeking help",true,"Working for outcomes",45,"Setting and striving for goals",true,"Requesting assistance",3,"Seeking help",true,1432,,,,,,,,,
65c1b23b2d7406c9c2b9f331,forced_choice,247,225,"Trust in oneself",80,"Self-confidence",true,"Relationships with teachers",11,"Relationships with teachers",false,"Trust in oneself",80,"Self-confidence",true,"Relationships with teachers",11,"Relationships with teachers",false,1515,,,,,,,,,
65c1b23b2d7406c9c2b9f331,forced_choice,248,225,"Social connections",9,"Relationships with peers",true,"Interpersonal ease",13,"Comfort in social situations",true,"Social connections",9,"Relationships with peers",true,"Interpersonal ease",13,"Comfort in social situations",true,1933,,,,,,,,,
65c1b23b2d7406c9c2b9f331,forced_choice,249,225,"Decision-making",36,"Decision-making",false,"Navigating difficulties",25,"Coping skills",true,"Navigating difficulties",25,"Coping skills",true,"Decision-making",36,"Decision-making",false,1966,,,,,,,,,
65c1b23b2d7406c9c2b9f331,forced_choice,250,225,"Mental regulation",34,"Managing thoughts",true,"Respectful",61,"Politeness",true,"Mental regulation",34,"Managing thoughts",true,"Respectful",61,"Politeness",true,1656,,,,,,,,,
65c1b23b2d7406c9c2b9f331,forced_choice,251,225,"Relationships with teachers",11,"Relationships with teachers",false,"Gender expression",18,"Sexual behavior",true,"Relationships with teachers",11,"Relationships with teachers",false,"Gender expression",18,"Sexual behavior",true,3300,,,,,,,,,
65c1b23b2d7406c9c2b9f331,forced_choice,252,225,"Navigating difficulties",25,"Coping skills",true,"Eating and diet",83,"Eating and diet",false,"Navigating difficulties",25,"Coping skills",true,"Eating and diet",83,"Eating and diet",false,2541,,,,,,,,,
65c1b23b2d7406c9c2b9f331,forced_choice,253,225,"Working for outcomes",45,"Setting and striving for goals",true,"Social connections",9,"Relationships with peers",true,"Working for outcomes",45,"Setting and striving for goals",true,"Social connections",9,"Relationships with peers",true,2226,,,,,,,,,
65c1b23b2d7406c9c2b9f331,forced_choice,254,225,"Restraint",75,"Self-control",true,"Trust in oneself",80,"Self-confidence",true,"Trust in oneself",80,"Self-confidence",true,"Restraint",75,"Self-control",true,1501,,,,,,,,,
65c1b23b2d7406c9c2b9f331,forced_choice,255,225,"Relationships with unfamiliar people",8,"Relationships with unfamiliar people",false,"Exercizing authority",55,"Leadership",true,"Exercizing authority",55,"Leadership",true,"Relationships with unfamiliar people",8,"Relationships with unfamiliar people",false,5031,,,,,,,,,
65c1b23b2d7406c9c2b9f331,forced_choice,256,225,"Eating and diet",83,"Eating and diet",false,"Social communication",14,"Social communication",false,"Social communication",14,"Social communication",false,"Eating and diet",83,"Eating and diet",false,1874,,,,,,,,,
65c1b23b2d7406c9c2b9f331,forced_choice,257,225,"Requesting assistance",3,"Seeking help",true,"Organization",43,"Organization",false,"Organization",43,"Organization",false,"Requesting assistance",3,"Seeking help",true,4787,,,,,,,,,
65c1b23b2d7406c9c2b9f331,forced_choice,258,225,"Mental health",84,"Emotional well-being",true,"Resilience",28,"Resilience",false,"Resilience",28,"Resilience",false,"Mental health",84,"Emotional well-being",true,1214,,,,,,,,,
65c1b23b2d7406c9c2b9f331,forced_choice,259,225,"Personal observation",77,"Self-monitoring",true,"Drowsiness",85,"Sleep and fatigue",true,"Drowsiness",85,"Sleep and fatigue",true,"Personal observation",77,"Self-monitoring",true,2188,,,,,,,,,
65c1b23b2d7406c9c2b9f331,forced_choice,260,225,"Restraint",75,"Self-control",true,"Resilience",28,"Resilience",false,"Resilience",28,"Resilience",false,"Restraint",75,"Self-control",true,1470,,,,,,,,,
65c1b23b2d7406c9c2b9f331,forced_choice,261,225,"Decision-making",36,"Decision-making",false,"Working for outcomes",45,"Setting and striving for goals",true,"Decision-making",36,"Decision-making",false,"Working for outcomes",45,"Setting and striving for goals",true,2093,,,,,,,,,
65c1b23b2d7406c9c2b9f331,forced_choice,262,225,"Social communication",14,"Social communication",false,"Managing behavior",0,"Managing behavior",false,"Social communication",14,"Social communication",false,"Managing behavior",0,"Managing behavior",false,1492,,,,,,,,,
65c1b23b2d7406c9c2b9f331,forced_choice,263,225,"Mental health",84,"Emotional well-being",true,"Exercizing authority",55,"Leadership",true,"Mental health",84,"Emotional well-being",true,"Exercizing authority",55,"Leadership",true,5158,,,,,,,,,
65c1b23b2d7406c9c2b9f331,forced_choice,264,225,"Respectful",61,"Politeness",true,"Drowsiness",85,"Sleep and fatigue",true,"Drowsiness",85,"Sleep and fatigue",true,"Respectful",61,"Politeness",true,1926,,,,,,,,,
65c1b23b2d7406c9c2b9f331,forced_choice,265,225,"Eating and diet",83,"Eating and diet",false,"Restraint",75,"Self-control",true,"Eating and diet",83,"Eating and diet",false,"Restraint",75,"Self-control",true,2297,,,,,,,,,
65c1b23b2d7406c9c2b9f331,forced_choice,266,225,"Gender expression",18,"Sexual behavior",true,"Justice",60,"Fairness",true,"Gender expression",18,"Sexual behavior",true,"Justice",60,"Fairness",true,1499,,,,,,,,,
65c1b23b2d7406c9c2b9f331,forced_choice,267,225,"Exercizing authority",55,"Leadership",true,"Mental regulation",34,"Managing thoughts",true,"Mental regulation",34,"Managing thoughts",true,"Exercizing authority",55,"Leadership",true,1732,,,,,,,,,
65c1b23b2d7406c9c2b9f331,forced_choice,268,225,"Relationships with unfamiliar people",8,"Relationships with unfamiliar people",false,"Decision-making",36,"Decision-making",false,"Decision-making",36,"Decision-making",false,"Relationships with unfamiliar people",8,"Relationships with unfamiliar people",false,1934,,,,,,,,,
65c1b23b2d7406c9c2b9f331,forced_choice,269,225,"Trust in oneself",80,"Self-confidence",true,"Decision-making",36,"Decision-making",false,"Trust in oneself",80,"Self-confidence",true,"Decision-making",36,"Decision-making",false,2115,,,,,,,,,
65c1b23b2d7406c9c2b9f331,forced_choice,270,225,"Mental regulation",34,"Managing thoughts",true,"Trust in oneself",80,"Self-confidence",true,"Mental regulation",34,"Managing thoughts",true,"Trust in oneself",80,"Self-confidence",true,2114,,,,,,,,,
65c1b23b2d7406c9c2b9f331,forced_choice,271,225,"Drowsiness",85,"Sleep and fatigue",true,"Relationships with unfamiliar people",8,"Relationships with unfamiliar people",false,"Drowsiness",85,"Sleep and fatigue",true,"Relationships with unfamiliar people",8,"Relationships with unfamiliar people",false,1798,,,,,,,,,
65c1b23b2d7406c9c2b9f331,forced_choice,272,225,"Resilience",28,"Resilience",false,"Trust in oneself",80,"Self-confidence",true,"Resilience",28,"Resilience",false,"Trust in oneself",80,"Self-confidence",true,1260,,,,,,,,,
65c1b23b2d7406c9c2b9f331,forced_choice,273,225,"Justice",60,"Fairness",true,"Social connections",9,"Relationships with peers",true,"Social connections",9,"Relationships with peers",true,"Justice",60,"Fairness",true,1514,,,,,,,,,
65c1b23b2d7406c9c2b9f331,forced_choice,274,225,"Willingness to try new things",57,"Willingness to try new things",false,"Respect for others",17,"Respect for others",false,"Willingness to try new things",57,"Willingness to try new things",false,"Respect for others",17,"Respect for others",false,1822,,,,,,,,,
65c1b23b2d7406c9c2b9f331,attention_check,279,,,,,,,,,,,,,,,,,,2925,"Paying attention","Paying attention",true,,,,,,
65c1b23b2d7406c9c2b9f331,forced_choice,275,225,"Relationships with teachers",11,"Relationships with teachers",false,"Navigating difficulties",25,"Coping skills",true,"Navigating difficulties",25,"Coping skills",true,"Relationships with teachers",11,"Relationships with teachers",false,3968,,,,,,,,,
65c1b23b2d7406c9c2b9f331,forced_choice,276,225,"Respectful",61,"Politeness",true,"Willingness to try new things",57,"Willingness to try new things",false,"Willingness to try new things",57,"Willingness to try new things",false,"Respectful",61,"Politeness",true,1625,,,,,,,,,
65c1b23b2d7406c9c2b9f331,forced_choice,277,225,"Exercizing authority",55,"Leadership",true,"Respect for others",17,"Respect for others",false,"Respect for others",17,"Respect for others",false,"Exercizing authority",55,"Leadership",true,2041,,,,,,,,,
65c1b23b2d7406c9c2b9f331,forced_choice,278,225,"Respectful",61,"Politeness",true,"Eating and diet",83,"Eating and diet",false,"Eating and diet",83,"Eating and diet",false,"Respectful",61,"Politeness",true,1994,,,,,,,,,
65c1b23b2d7406c9c2b9f331,forced_choice,279,225,"Drowsiness",85,"Sleep and fatigue",true,"Justice",60,"Fairness",true,"Drowsiness",85,"Sleep and fatigue",true,"Justice",60,"Fairness",true,1948,,,,,,,,,
65c1b23b2d7406c9c2b9f331,forced_choice,280,225,"Social communication",14,"Social communication",false,"Mental health",84,"Emotional well-being",true,"Social communication",14,"Social communication",false,"Mental health",84,"Emotional well-being",true,2467,,,,,,,,,
65c1b23b2d7406c9c2b9f331,forced_choice,281,225,"Personal observation",77,"Self-monitoring",true,"Trust in oneself",80,"Self-confidence",true,"Trust in oneself",80,"Self-confidence",true,"Personal observation",77,"Self-monitoring",true,3352,,,,,,,,,
65c1b23b2d7406c9c2b9f331,forced_choice,282,225,"Justice",60,"Fairness",true,"Mental regulation",34,"Managing thoughts",true,"Mental regulation",34,"Managing thoughts",true,"Justice",60,"Fairness",true,1170,,,,,,,,,
65c1b23b2d7406c9c2b9f331,forced_choice,283,225,"Drowsiness",85,"Sleep and fatigue",true,"Navigating difficulties",25,"Coping skills",true,"Navigating difficulties",25,"Coping skills",true,"Drowsiness",85,"Sleep and fatigue",true,1273,,,,,,,,,
65c1b23b2d7406c9c2b9f331,forced_choice,284,225,"Working for outcomes",45,"Setting and striving for goals",true,"Eating and diet",83,"Eating and diet",false,"Working for outcomes",45,"Setting and striving for goals",true,"Eating and diet",83,"Eating and diet",false,1868,,,,,,,,,
65c1b23b2d7406c9c2b9f331,forced_choice,285,225,"Trust in oneself",80,"Self-confidence",true,"Social communication",14,"Social communication",false,"Social communication",14,"Social communication",false,"Trust in oneself",80,"Self-confidence",true,2699,,,,,,,,,
65c1b23b2d7406c9c2b9f331,forced_choice,286,225,"Interpersonal ease",13,"Comfort in social situations",true,"Mental regulation",34,"Managing thoughts",true,"Mental regulation",34,"Managing thoughts",true,"Interpersonal ease",13,"Comfort in social situations",true,1836,,,,,,,,,
65c1b23b2d7406c9c2b9f331,forced_choice,287,225,"Managing behavior",0,"Managing behavior",false,"Exercizing authority",55,"Leadership",true,"Managing behavior",0,"Managing behavior",false,"Exercizing authority",55,"Leadership",true,1568,,,,,,,,,
65c1b23b2d7406c9c2b9f331,forced_choice,288,225,"Gender expression",18,"Sexual behavior",true,"Resilience",28,"Resilience",false,"Resilience",28,"Resilience",false,"Gender expression",18,"Sexual behavior",true,1485,,,,,,,,,
65c1b23b2d7406c9c2b9f331,forced_choice,289,225,"Eating and diet",83,"Eating and diet",false,"Personal observation",77,"Self-monitoring",true,"Eating and diet",83,"Eating and diet",false,"Personal observation",77,"Self-monitoring",true,2787,,,,,,,,,
65c1b23b2d7406c9c2b9f331,forced_choice,290,225,"Organization",43,"Organization",false,"Industriousness",67,"Work habits",true,"Industriousness",67,"Work habits",true,"Organization",43,"Organization",false,2258,,,,,,,,,
65c1b23b2d7406c9c2b9f331,forced_choice,291,225,"Restraint",75,"Self-control",true,"Organization",43,"Organization",false,"Organization",43,"Organization",false,"Restraint",75,"Self-control",true,1844,,,,,,,,,
65c1b23b2d7406c9c2b9f331,forced_choice,292,225,"Decision-making",36,"Decision-making",false,"Relationships with teachers",11,"Relationships with teachers",false,"Decision-making",36,"Decision-making",false,"Relationships with teachers",11,"Relationships with teachers",false,1823,,,,,,,,,
65c1b23b2d7406c9c2b9f331,forced_choice,293,225,"Requesting assistance",3,"Seeking help",true,"Trust in oneself",80,"Self-confidence",true,"Trust in oneself",80,"Self-confidence",true,"Requesting assistance",3,"Seeking help",true,1686,,,,,,,,,
65c1b23b2d7406c9c2b9f331,forced_choice,294,225,"Interpersonal ease",13,"Comfort in social situations",true,"Exercizing authority",55,"Leadership",true,"Interpersonal ease",13,"Comfort in social situations",true,"Exercizing authority",55,"Leadership",true,2363,,,,,,,,,
65c1b23b2d7406c9c2b9f331,forced_choice,295,225,"Industriousness",67,"Work habits",true,"Social communication",14,"Social communication",false,"Social communication",14,"Social communication",false,"Industriousness",67,"Work habits",true,1685,,,,,,,,,
65c1b23b2d7406c9c2b9f331,forced_choice,296,225,"Respectful",61,"Politeness",true,"Exercizing authority",55,"Leadership",true,"Exercizing authority",55,"Leadership",true,"Respectful",61,"Politeness",true,1944,,,,,,,,,
65c1b23b2d7406c9c2b9f331,forced_choice,297,225,"Resilience",28,"Resilience",false,"Managing behavior",0,"Managing behavior",false,"Resilience",28,"Resilience",false,"Managing behavior",0,"Managing behavior",false,1650,,,,,,,,,
65c1b23b2d7406c9c2b9f331,forced_choice,298,225,"Social connections",9,"Relationships with peers",true,"Drowsiness",85,"Sleep and fatigue",true,"Social connections",9,"Relationships with peers",true,"Drowsiness",85,"Sleep and fatigue",true,1627,,,,,,,,,
65c1b23b2d7406c9c2b9f331,forced_choice,299,225,"Working for outcomes",45,"Setting and striving for goals",true,"Personal observation",77,"Self-monitoring",true,"Working for outcomes",45,"Setting and striving for goals",true,"Personal observation",77,"Self-monitoring",true,1393,,,,,,,,,
65c1b23b2d7406c9c2b9f331,forced_choice,300,225,"Drowsiness",85,"Sleep and fatigue",true,"Industriousness",67,"Work habits",true,"Industriousness",67,"Work habits",true,"Drowsiness",85,"Sleep and fatigue",true,1583,,,,,,,,,
65c1b23b2d7406c9c2b9f331,forced_choice,301,225,"Relationships with unfamiliar people",8,"Relationships with unfamiliar people",false,"Navigating difficulties",25,"Coping skills",true,"Navigating difficulties",25,"Coping skills",true,"Relationships with unfamiliar people",8,"Relationships with unfamiliar people",false,1702,,,,,,,,,
65c1b23b2d7406c9c2b9f331,forced_choice,302,225,"Requesting assistance",3,"Seeking help",true,"Resilience",28,"Resilience",false,"Resilience",28,"Resilience",false,"Requesting assistance",3,"Seeking help",true,1582,,,,,,,,,
65c1b23b2d7406c9c2b9f331,forced_choice,303,225,"Respectful",61,"Politeness",true,"Gender expression",18,"Sexual behavior",true,"Gender expression",18,"Sexual behavior",true,"Respectful",61,"Politeness",true,2175,,,,,,,,,
65c1b23b2d7406c9c2b9f331,forced_choice,304,225,"Relationships with unfamiliar people",8,"Relationships with unfamiliar people",false,"Working for outcomes",45,"Setting and striving for goals",true,"Working for outcomes",45,"Setting and striving for goals",true,"Relationships with unfamiliar people",8,"Relationships with unfamiliar people",false,2068,,,,,,,,,
65c1b23b2d7406c9c2b9f331,forced_choice,305,225,"Mental regulation",34,"Managing thoughts",true,"Mental health",84,"Emotional well-being",true,"Mental health",84,"Emotional well-being",true,"Mental regulation",34,"Managing thoughts",true,1680,,,,,,,,,
65c1b23b2d7406c9c2b9f331,forced_choice,306,225,"Relationships with teachers",11,"Relationships with teachers",false,"Relationships with unfamiliar people",8,"Relationships with unfamiliar people",false,"Relationships with teachers",11,"Relationships with teachers",false,"Relationships with unfamiliar people",8,"Relationships with unfamiliar people",false,2370,,,,,,,,,
65c1b23b2d7406c9c2b9f331,forced_choice,307,225,"Resilience",28,"Resilience",false,"Decision-making",36,"Decision-making",false,"Resilience",28,"Resilience",false,"Decision-making",36,"Decision-making",false,1609,,,,,,,,,
65c1b23b2d7406c9c2b9f331,forced_choice,308,225,"Willingness to try new things",57,"Willingness to try new things",false,"Drowsiness",85,"Sleep and fatigue",true,"Willingness to try new things",57,"Willingness to try new things",false,"Drowsiness",85,"Sleep and fatigue",true,1514,,,,,,,,,
65c1b23b2d7406c9c2b9f331,forced_choice,309,225,"Decision-making",36,"Decision-making",false,"Organization",43,"Organization",false,"Decision-making",36,"Decision-making",false,"Organization",43,"Organization",false,2249,,,,,,,,,
65c1b23b2d7406c9c2b9f331,forced_choice,310,225,"Exercizing authority",55,"Leadership",true,"Organization",43,"Organization",false,"Organization",43,"Organization",false,"Exercizing authority",55,"Leadership",true,2558,,,,,,,,,
65c1b23b2d7406c9c2b9f331,forced_choice,311,225,"Requesting assistance",3,"Seeking help",true,"Decision-making",36,"Decision-making",false,"Decision-making",36,"Decision-making",false,"Requesting assistance",3,"Seeking help",true,1748,,,,,,,,,
65c1b23b2d7406c9c2b9f331,forced_choice,312,225,"Navigating difficulties",25,"Coping skills",true,"Social communication",14,"Social communication",false,"Navigating difficulties",25,"Coping skills",true,"Social communication",14,"Social communication",false,1680,,,,,,,,,
65c1b23b2d7406c9c2b9f331,forced_choice,313,225,"Eating and diet",83,"Eating and diet",false,"Gender expression",18,"Sexual behavior",true,"Eating and diet",83,"Eating and diet",false,"Gender expression",18,"Sexual behavior",true,1488,,,,,,,,,
65c1b23b2d7406c9c2b9f331,forced_choice,314,225,"Organization",43,"Organization",false,"Trust in oneself",80,"Self-confidence",true,"Trust in oneself",80,"Self-confidence",true,"Organization",43,"Organization",false,2048,,,,,,,,,
65c1b23b2d7406c9c2b9f331,forced_choice,315,225,"Respectful",61,"Politeness",true,"Relationships with unfamiliar people",8,"Relationships with unfamiliar people",false,"Relationships with unfamiliar people",8,"Relationships with unfamiliar people",false,"Respectful",61,"Politeness",true,1784,,,,,,,,,
65c1b23b2d7406c9c2b9f331,forced_choice,316,225,"Relationships with teachers",11,"Relationships with teachers",false,"Mental regulation",34,"Managing thoughts",true,"Mental regulation",34,"Managing thoughts",true,"Relationships with teachers",11,"Relationships with teachers",false,1965,,,,,,,,,
65c1b23b2d7406c9c2b9f331,forced_choice,317,225,"Relationships with teachers",11,"Relationships with teachers",false,"Mental health",84,"Emotional well-being",true,"Mental health",84,"Emotional well-being",true,"Relationships with teachers",11,"Relationships with teachers",false,1200,,,,,,,,,
65c1b23b2d7406c9c2b9f331,forced_choice,318,225,"Justice",60,"Fairness",true,"Respectful",61,"Politeness",true,"Justice",60,"Fairness",true,"Respectful",61,"Politeness",true,2307,,,,,,,,,
65c1b23b2d7406c9c2b9f331,forced_choice,319,225,"Social communication",14,"Social communication",false,"Working for outcomes",45,"Setting and striving for goals",true,"Social communication",14,"Social communication",false,"Working for outcomes",45,"Setting and striving for goals",true,3525,,,,,,,,,
65c1b23b2d7406c9c2b9f331,forced_choice,320,225,"Exercizing authority",55,"Leadership",true,"Navigating difficulties",25,"Coping skills",true,"Navigating difficulties",25,"Coping skills",true,"Exercizing authority",55,"Leadership",true,1715,,,,,,,,,
65c1b23b2d7406c9c2b9f331,forced_choice,321,225,"Relationships with teachers",11,"Relationships with teachers",false,"Willingness to try new things",57,"Willingness to try new things",false,"Willingness to try new things",57,"Willingness to try new things",false,"Relationships with teachers",11,"Relationships with teachers",false,1499,,,,,,,,,
65c1b23b2d7406c9c2b9f331,forced_choice,322,225,"Managing behavior",0,"Managing behavior",false,"Decision-making",36,"Decision-making",false,"Decision-making",36,"Decision-making",false,"Managing behavior",0,"Managing behavior",false,1989,,,,,,,,,
65c1b23b2d7406c9c2b9f331,forced_choice,323,225,"Relationships with unfamiliar people",8,"Relationships with unfamiliar people",false,"Interpersonal ease",13,"Comfort in social situations",true,"Interpersonal ease",13,"Comfort in social situations",true,"Relationships with unfamiliar people",8,"Relationships with unfamiliar people",false,1897,,,,,,,,,
65c1b23b2d7406c9c2b9f331,forced_choice,324,225,"Social communication",14,"Social communication",false,"Interpersonal ease",13,"Comfort in social situations",true,"Interpersonal ease",13,"Comfort in social situations",true,"Social communication",14,"Social communication",false,3231,,,,,,,,,
