user_id,task,trial_index,subset_index,left_term,left_construct_id,left_canonical,left_is_synonym,right_term,right_construct_id,right_canonical,right_is_synonym,chosen_term,chosen_construct_id,chosen_canonical,chosen_is_synonym,unchosen_term,unchosen_construct_id,unchosen_canonical,unchosen_is_synonym,response_time,correct_word,chosen_word,passed,grade_levels,special_needs,school_type,experience,class_size,country
66472a03650f9441b8f815d9,demographics,,,,,,,,,,,,,,,,,,,,,,,"high_school","yes","public",">10","15-25","United States"
66472a03650f9441b8f815d9,forced_choice,0,262,"Accepting diversity",59,"Respect for others",true,"Seeking help",3,"Seeking help",false,"Accepting diversity",59,"Respect for others",true,"Seeking help",3,"Seeking help",false,8134,,,,,,,,,
66472a03650f9441b8f815d9,forced_choice,1,262,"Justice",60,"Fairness",true,"Symbolic processing",49,"Abstract thinking",true,"Symbolic processing",49,"Abstract thinking",true,"Justice",60,"Fairness",true,8986,,,,,,,,,
66472a03650f9441b8f815d9,forced_choice,2,262,"Task initiation",46,"Task initiation",false,"Mood perception",31,"Emotional awareness",true,"Task initiation",46,"Task initiation",false,"Mood perception",31,"Emotional awareness",true,4407,,,,,,,,,
66472a03650f9441b8f815d9,forced_choice,3,262,"Interpersonal participation",15,"Social activity",true,"Social cooperation",12,"Social cooperation",false,"Social cooperation",12,"Social cooperation",false,"Interpersonal participation",15,"Social activity",true,7200,,,,,,,,,
66472a03650f9441b8f815d9,forced_choice,4,262,"Navigating difficulties",25,"Coping skills",true,"Setting and striving for goals",45,"Setting and striving for goals",false,"Navigating difficulties",25,"Coping skills",true,"Setting and striving for goals",45,"Setting and striving for goals",false,3848,,,,,,,,,
66472a03650f9441b8f815d9,forced_choice,5,262,"Exhaustion",85,"Sleep and fatigue",true,"Task initiation",46,"Task initiation",false,"Task initiation",46,"Task initiation",false,"Exhaustion",85,"Sleep and fatigue",true,16166,,,,,,,,,
66472a03650f9441b8f815d9,forced_choice,6,262,"Rate of thought processing",48,"Thinking speed",true,"Seeking help",3,"Seeking help",false,"Rate of thought processing",48,"Thinking speed",true,"Seeking help",3,"Seeking help",false,2149,,,,,,,,,
66472a03650f9441b8f815d9,forced_choice,7,262,"Finding solutions in one's surroundings",27,"Resourcefulness",true,"Accepting diversity",59,"Respect for others",true,"Finding solutions in one's surroundings",27,"Resourcefulness",true,"Accepting diversity",59,"Respect for others",true,5645,,,,,,,,,
66472a03650f9441b8f815d9,forced_choice,8,262,"Setting and striving for goals",45,"Setting and striving for goals",false,"Justice",60,"Fairness",true,"Setting and striving for goals",45,"Setting and striving for goals",false,"Justice",60,"Fairness",true,2829,,,,,,,,,
66472a03650f9441b8f815d9,forced_choice,9,262,"Interpersonal participation",15,"Social activity",true,"Justice",60,"Fairness",true,"Interpersonal participation",15,"Social activity",true,"Justice",60,"Fairness",true,4180,,,,,,,,,
66472a03650f9441b8f815d9,forced_choice,10,262,"Exhaustion",85,"Sleep and fatigue",true,"Mood perception",31,"Emotional awareness",true,"Exhaustion",85,"Sleep and fatigue",true,"Mood perception",31,"Emotional awareness",true,2219,,,,,,,,,
66472a03650f9441b8f815d9,forced_choice,11,262,"Asking questions",4,"Asking questions",false,"Exhaustion",85,"Sleep and fatigue",true,"Asking questions",4,"Asking questions",false,"Exhaustion",85,"Sleep and fatigue",true,2064,,,,,,,,,
66472a03650f9441b8f815d9,forced_choice,12,262,"Finding solutions in one's surroundings",27,"Resourcefulness",true,"Individual championing",81,"Self-advocacy",true,"Individual championing",81,"Self-advocacy",true,"Finding solutions in one's surroundings",27,"Resourcefulness",true,3514,,,,,,,,,
66472a03650f9441b8f815d9,forced_choice,13,262,"Psychological toughness",28,"Resilience",true,"Symbolic processing",49,"Abstract thinking",true,"Psychological toughness",28,"Resilience",true,"Symbolic processing",49,"Abstract thinking",true,2703,,,,,,,,,
66472a03650f9441b8f815d9,forced_choice,14,262,"Seeking help",3,"Seeking help",false,"Social cooperation",12,"Social cooperation",false,"Social cooperation",12,"Social cooperation",false,"Seeking help",3,"Seeking help",false,2581,,,,,,,,,
66472a03650f9441b8f815d9,forced_choice,15,262,"Social validation",20,"Social belonging",true,"Social cooperation",12,"Social cooperation",false,"Social cooperation",12,"Social cooperation",false,"Social validation",20,"Social belonging",true,3345,,,,,,,,,
66472a03650f9441b8f815d9,forced_choice,16,262,"Personal security",21,"Sense of safety",true,"Ingenuity",50,"Creativity and imagination",true,"Ingenuity",50,"Creativity and imagination",true,"Personal security",21,"Sense of safety",true,3865,,,,,,,,,
66472a03650f9441b8f815d9,forced_choice,17,262,"Task initiation",46,"Task initiation",false,"Symbolic processing",49,"Abstract thinking",true,"Task initiation",46,"Task initiation",false,"Symbolic processing",49,"Abstract thinking",true,2150,,,,,,,,,
66472a03650f9441b8f815d9,forced_choice,18,262,"Interpersonal participation",15,"Social activity",true,"Inner understanding",76,"Self-awareness",true,"Inner understanding",76,"Self-awareness",true,"Interpersonal participation",15,"Social activity",true,2848,,,,,,,,,
66472a03650f9441b8f815d9,forced_choice,19,262,"Justice",60,"Fairness",true,"Ability to wait",62,"Patience",true,"Ability to wait",62,"Patience",true,"Justice",60,"Fairness",true,1781,,,,,,,,,
66472a03650f9441b8f815d9,forced_choice,20,262,"Class participation",89,"Class participation",false,"Accepting diversity",59,"Respect for others",true,"Class participation",89,"Class participation",false,"Accepting diversity",59,"Respect for others",true,1749,,,,,,,,,
66472a03650f9441b8f815d9,forced_choice,21,262,"Personal security",21,"Sense of safety",true,"Individual championing",81,"Self-advocacy",true,"Personal security",21,"Sense of safety",true,"Individual championing",81,"Self-advocacy",true,2646,,,,,,,,,
66472a03650f9441b8f815d9,forced_choice,22,262,"Exhaustion",85,"Sleep and fatigue",true,"Social communication",14,"Social communication",false,"Social communication",14,"Social communication",false,"Exhaustion",85,"Sleep and fatigue",true,2567,,,,,,,,,
66472a03650f9441b8f815d9,forced_choice,23,262,"Individual championing",81,"Self-advocacy",true,"Seeking help",3,"Seeking help",false,"Seeking help",3,"Seeking help",false,"Individual championing",81,"Self-advocacy",true,3014,,,,,,,,,
66472a03650f9441b8f815d9,forced_choice,24,262,"Ingenuity",50,"Creativity and imagination",true,"Navigating difficulties",25,"Coping skills",true,"Navigating difficulties",25,"Coping skills",true,"Ingenuity",50,"Creativity and imagination",true,1931,,,,,,,,,
66472a03650f9441b8f815d9,forced_choice,25,262,"Individual championing",81,"Self-advocacy",true,"Attention",40,"Attention",false,"Attention",40,"Attention",false,"Individual championing",81,"Self-advocacy",true,7545,,,,,,,,,
66472a03650f9441b8f815d9,forced_choice,26,262,"Interpersonal participation",15,"Social activity",true,"Ability to wait",62,"Patience",true,"Ability to wait",62,"Patience",true,"Interpersonal participation",15,"Social activity",true,2101,,,,,,,,,
66472a03650f9441b8f815d9,forced_choice,27,262,"Navigating difficulties",25,"Coping skills",true,"Class participation",89,"Class participation",false,"Class participation",89,"Class participation",false,"Navigating difficulties",25,"Coping skills",true,16082,,,,,,,,,
66472a03650f9441b8f815d9,forced_choice,28,262,"Personal security",21,"Sense of safety",true,"Ability to wait",62,"Patience",true,"Ability to wait",62,"Patience",true,"Personal security",21,"Sense of safety",true,2948,,,,,,,,,
66472a03650f9441b8f815d9,forced_choice,29,262,"Asking questions",4,"Asking questions",false,"Finding solutions in one's surroundings",27,"Resourcefulness",true,"Asking questions",4,"Asking questions",false,"Finding solutions in one's surroundings",27,"Resourcefulness",true,2099,,,,,,,,,
66472a03650f9441b8f815d9,forced_choice,30,262,"Inner understanding",76,"Self-awareness",true,"Social communication",14,"Social communication",false,"Social communication",14,"Social communication",false,"Inner understanding",76,"Self-awareness",true,1748,,,,,,,,,
66472a03650f9441b8f815d9,forced_choice,31,262,"Setting and striving for goals",45,"Setting and striving for goals",false,"Mood perception",31,"Emotional awareness",true,"Setting and striving for goals",45,"Setting and striving for goals",false,"Mood perception",31,"Emotional awareness",true,1863,,,,,,,,,
66472a03650f9441b8f815d9,forced_choice,32,262,"Ingenuity",50,"Creativity and imagination",true,"Psychological toughness",28,"Resilience",true,"Psychological toughness",28,"Resilience",true,"Ingenuity",50,"Creativity and imagination",true,2766,,,,,,,,,
66472a03650f9441b8f815d9,forced_choice,33,262,"Seeking help",3,"Seeking help",false,"Attention",40,"Attention",false,"Seeking help",3,"Seeking help",false,"Attention",40,"Attention",false,3527,,,,,,,,,
66472a03650f9441b8f815d9,forced_choice,34,262,"Attention",40,"Attention",false,"Task initiation",46,"Task initiation",false,"Task initiation",46,"Task initiation",false,"Attention",40,"Attention",false,2487,,,,,,,,,
66472a03650f9441b8f815d9,forced_choice,35,262,"Attention",40,"Attention",false,"Navigating difficulties",25,"Coping skills",true,"Navigating difficulties",25,"Coping skills",true,"Attention",40,"Attention",false,3844,,,,,,,,,
66472a03650f9441b8f815d9,forced_choice,36,262,"Setting and striving for goals",45,"Setting and striving for goals",false,"Ability to wait",62,"Patience",true,"Setting and striving for goals",45,"Setting and striving for goals",false,"Ability to wait",62,"Patience",true,1985,,,,,,,,,
66472a03650f9441b8f815d9,forced_choice,37,262,"Social communication",14,"Social communication",false,"Class participation",89,"Class participation",false,"Class participation",89,"Class participation",false,"Social communication",14,"Social communication",false,3147,,,,,,,,,
66472a03650f9441b8f815d9,forced_choice,38,262,"Social validation",20,"Social belonging",true,"Memory",41,"Memory",false,"Memory",41,"Memory",false,"Social validation",20,"Social belonging",true,1748,,,,,,,,,
66472a03650f9441b8f815d9,forced_choice,39,262,"Memory",41,"Memory",false,"Psychological toughness",28,"Resilience",true,"Psychological toughness",28,"Resilience",true,"Memory",41,"Memory",false,2229,,,,,,,,,
66472a03650f9441b8f815d9,forced_choice,40,262,"Social validation",20,"Social belonging",true,"Attention",40,"Attention",false,"Attention",40,"Attention",false,"Social validation",20,"Social belonging",true,2364,,,,,,,,,
66472a03650f9441b8f815d9,forced_choice,41,262,"Memory",41,"Memory",false,"Finding solutions in one's surroundings",27,"Resourcefulness",true,"Memory",41,"Memory",false,"Finding solutions in one's surroundings",27,"Resourcefulness",true,4851,,,,,,,,,
66472a03650f9441b8f815d9,forced_choice,42,262,"Exhaustion",85,"Sleep and fatigue",true,"Memory",41,"Memory",false,"Memory",41,"Memory",false,"Exhaustion",85,"Sleep and fatigue",true,2783,,,,,,,,,
66472a03650f9441b8f815d9,forced_choice,43,262,"Ability to wait",62,"Patience",true,"Psychological toughness",28,"Resilience",true,"Ability to wait",62,"Patience",true,"Psychological toughness",28,"Resilience",true,5264,,,,,,,,,
66472a03650f9441b8f815d9,forced_choice,44,262,"Interpersonal participation",15,"Social activity",true,"Social communication",14,"Social communication",false,"Social communication",14,"Social communication",false,"Interpersonal participation",15,"Social activity",true,3697,,,,,,,,,
66472a03650f9441b8f815d9,forced_choice,45,262,"Social communication",14,"Social communication",false,"Mood perception",31,"Emotional awareness",true,"Social communication",14,"Social communication",false,"Mood perception",31,"Emotional awareness",true,1715,,,,,,,,,
66472a03650f9441b8f815d9,forced_choice,46,262,"Task initiation",46,"Task initiation",false,"Inner understanding",76,"Self-awareness",true,"Task initiation",46,"Task initiation",false,"Inner understanding",76,"Self-awareness",true,2178,,,,,,,,,
66472a03650f9441b8f815d9,forced_choice,47,262,"Justice",60,"Fairness",true,"Inner understanding",76,"Self-awareness",true,"Inner understanding",76,"Self-awareness",true,"Justice",60,"Fairness",true,1301,,,,,,,,,
66472a03650f9441b8f815d9,forced_choice,48,262,"Finding solutions in one's surroundings",27,"Resourcefulness",true,"Rate of thought processing",48,"Thinking speed",true,"Rate of thought processing",48,"Thinking speed",true,"Finding solutions in one's surroundings",27,"Resourcefulness",true,2132,,,,,,,,,
66472a03650f9441b8f815d9,forced_choice,49,262,"Memory",41,"Memory",false,"Setting and striving for goals",45,"Setting and striving for goals",false,"Setting and striving for goals",45,"Setting and striving for goals",false,"Memory",41,"Memory",false,2895,,,,,,,,,
66472a03650f9441b8f815d9,forced_choice,50,262,"Task initiation",46,"Task initiation",false,"Interpersonal participation",15,"Social activity",true,"Task initiation",46,"Task initiation",false,"Interpersonal participation",15,"Social activity",true,1617,,,,,,,,,
66472a03650f9441b8f815d9,forced_choice,51,262,"Finding solutions in one's surroundings",27,"Resourcefulness",true,"Personal security",21,"Sense of safety",true,"Personal security",21,"Sense of safety",true,"Finding solutions in one's surroundings",27,"Resourcefulness",true,1849,,,,,,,,,
66472a03650f9441b8f815d9,forced_choice,52,262,"Social validation",20,"Social belonging",true,"Ingenuity",50,"Creativity and imagination",true,"Ingenuity",50,"Creativity and imagination",true,"Social validation",20,"Social belonging",true,2345,,,,,,,,,
66472a03650f9441b8f815d9,forced_choice,53,262,"Asking questions",4,"Asking questions",false,"Ability to wait",62,"Patience",true,"Asking questions",4,"Asking questions",false,"Ability to wait",62,"Patience",true,15201,,,,,,,,,
66472a03650f9441b8f815d9,forced_choice,54,262,"Accepting diversity",59,"Respect for others",true,"Personal security",21,"Sense of safety",true,"Accepting diversity",59,"Respect for others",true,"Personal security",21,"Sense of safety",true,2212,,,,,,,,,
66472a03650f9441b8f815d9,attention_check,55,,,,,,,,,,,,,,,,,,5980,"Paying attention","Paying attention",true,,,,,,
66472a03650f9441b8f815d9,forced_choice,55,262,"Class participation",89,"Class participation",false,"Asking questions",4,"Asking questions",false,"Asking questions",4,"Asking questions",false,"Class participation",89,"Class participation",false,2601,,,,,,,,,
66472a03650f9441b8f815d9,forced_choice,56,262,"Symbolic processing",49,"Abstract thinking",true,"Personal security",21,"Sense of safety",true,"Personal security",21,"Sense of safety",true,"Symbolic processing",49,"Abstract thinking",true,2196,,,,,,,,,
66472a03650f9441b8f815d9,forced_choice,57,262,"Ability to wait",62,"Patience",true,"Seeking help",3,"Seeking help",false,"Seeking help",3,"Seeking help",false,"Ability to wait",62,"Patience",true,1881,,,,,,,,,
66472a03650f9441b8f815d9,forced_choice,58,262,"Navigating difficulties",25,"Coping skills",true,"Symbolic processing",49,"Abstract thinking",true,"Navigating difficulties",25,"Coping skills",true,"Symbolic processing",49,"Abstract thinking",true,1617,,,,,,,,,
66472a03650f9441b8f815d9,forced_choice,59,262,"Interpersonal participation",15,"Social activity",true,"Navigating difficulties",25,"Coping skills",true,"Navigating difficulties",25,"Coping skills",true,"Interpersonal participation",15,"Social activity",true,1800,,,,,,,,,
66472a03650f9441b8f815d9,forced_choice,60,262,"Task initiation",46,"Task initiation",false,"Individual championing",81,"Self-advocacy",true,"Task initiation",46,"Task initiation",false,"Individual championing",81,"Self-advocacy",true,2149,,,,,,,,,
66472a03650f9441b8f815d9,forced_choice,61,262,"Attention",40,"Attention",false,"Social cooperation",12,"Social cooperation",false,"Social cooperation",12,"Social cooperation",false,"Attention",40,"Attention",false,2383,,,,,,,,,
66472a03650f9441b8f815d9,forced_choice,62,262,"Personal security",21,"Sense of safety",true,"Social cooperation",12,"Social cooperation",false,"Social cooperation",12,"Social cooperation",false,"Personal security",21,"Sense of safety",true,1281,,,,,,,,,
66472a03650f9441b8f815d9,forced_choice,63,262,"Social cooperation",12,"Social cooperation",false,"Finding solutions in one's surroundings",27,"Resourcefulness",true,"Social cooperation",12,"Social cooperation",false,"Finding solutions in one's surroundings",27,"Resourcefulness",true,1366,,,,,,,,,
66472a03650f9441b8f815d9,forced_choice,64,262,"Mood perception",31,"Emotional awareness",true,"Seeking help",3,"Seeking help",false,"Seeking help",3,"Seeking help",false,"Mood perception",31,"Emotional awareness",true,1415,,,,,,,,,
66472a03650f9441b8f815d9,forced_choice,65,262,"Inner understanding",76,"Self-awareness",true,"Class participation",89,"Class participation",false,"Class participation",89,"Class participation",false,"Inner understanding",76,"Self-awareness",true,1545,,,,,,,,,
66472a03650f9441b8f815d9,forced_choice,66,262,"Ability to wait",62,"Patience",true,"Symbolic processing",49,"Abstract thinking",true,"Ability to wait",62,"Patience",true,"Symbolic processing",49,"Abstract thinking",true,1401,,,,,,,,,
66472a03650f9441b8f815d9,forced_choice,67,262,"Symbolic processing",49,"Abstract thinking",true,"Memory",41,"Memory",false,"Memory",41,"Memory",false,"Symbolic processing",49,"Abstract thinking",true,1414,,,,,,,,,
66472a03650f9441b8f815d9,forced_choice,68,262,"Attention",40,"Attention",false,"Accepting diversity",59,"Respect for others",true,"Accepting diversity",59,"Respect for others",true,"Attention",40,"Attention",false,1596,,,,,,,,,
66472a03650f9441b8f815d9,forced_choice,69,262,"Mood perception",31,"Emotional awareness",true,"Symbolic processing",49,"Abstract thinking",true,"Mood perception",31,"Emotional awareness",true,"Symbolic processing",49,"Abstract thinking",true,3285,,,,,,,,,
66472a03650f9441b8f815d9,forced_choice,70,262,"Navigating difficulties",25,"Coping skills",true,"Mood perception",31,"Emotional awareness",true,"Navigating difficulties",25,"Coping skills",true,"Mood perception",31,"Emotional awareness",true,1845,,,,,,,,,
66472a03650f9441b8f815d9,forced_choice,71,262,"Inner understanding",76,"Self-awareness",true,"Exhaustion",85,"Sleep and fatigue",true,"Exhaustion",85,"Sleep and fatigue",true,"Inner understanding",76,"Self-awareness",true,1469,,,,,,,,,
66472a03650f9441b8f815d9,forced_choice,72,262,"Justice",60,"Fairness",true,"Social awareness",16,"Social awareness",false,"Social awareness",16,"Social awareness",false,"Justice",60,"Fairness",true,1311,,,,,,,,,
66472a03650f9441b8f815d9,forced_choice,73,262,"Navigating difficulties",25,"Coping skills",true,"Accepting diversity",59,"Respect for others",true,"Navigating difficulties",25,"Coping skills",true,"Accepting diversity",59,"Respect for others",true,2417,,,,,,,,,
66472a03650f9441b8f815d9,forced_choice,74,262,"Symbolic processing",49,"Abstract thinking",true,"Ingenuity",50,"Creativity and imagination",true,"Ingenuity",50,"Creativity and imagination",true,"Symbolic processing",49,"Abstract thinking",true,3583,,,,,,,,,
66472a03650f9441b8f815d9,forced_choice,75,262,"Exhaustion",85,"Sleep and fatigue",true,"Interpersonal participation",15,"Social activity",true,"Exhaustion",85,"Sleep and fatigue",true,"Interpersonal participation",15,"Social activity",true,1749,,,,,,,,,
66472a03650f9441b8f815d9,forced_choice,76,262,"Social awareness",16,"Social awareness",false,"Inner understanding",76,"Self-awareness",true,"Inner understanding",76,"Self-awareness",true,"Social awareness",16,"Social awareness",false,1479,,,,,,,,,
66472a03650f9441b8f815d9,forced_choice,77,262,"Inner understanding",76,"Self-awareness",true,"Individual championing",81,"Self-advocacy",true,"Inner understanding",76,"Self-awareness",true,"Individual championing",81,"Self-advocacy",true,1401,,,,,,,,,
66472a03650f9441b8f815d9,forced_choice,78,262,"Ingenuity",50,"Creativity and imagination",true,"Mood perception",31,"Emotional awareness",true,"Mood perception",31,"Emotional awareness",true,"Ingenuity",50,"Creativity and imagination",true,1581,,,,,,,,,
66472a03650f9441b8f815d9,forced_choice,79,262,"Social awareness",16,"Social awareness",false,"Personal security",21,"Sense of safety",true,"Social awareness",16,"Social awareness",false,"Personal security",21,"Sense of safety",true,6080,,,,,,,,,
66472a03650f9441b8f815d9,forced_choice,80,262,"Social cooperation",12,"Social cooperation",false,"Exhaustion",85,"Sleep and fatigue",true,"Social cooperation",12,"Social cooperation",false,"Exhaustion",85,"Sleep and fatigue",true,1728,,,,,,,,,
66472a03650f9441b8f815d9,forced_choice,81,262,"Justice",60,"Fairness",true,"Mood perception",31,"Emotional awareness",true,"Mood perception",31,"Emotional awareness",true,"Justice",60,"Fairness",true,1846,,,,,,,,,
66472a03650f9441b8f815d9,forced_choice,82,262,"Symbolic processing",49,"Abstract thinking",true,"Social awareness",16,"Social awareness",false,"Social awareness",16,"Social awareness",false,"Symbolic processing",49,"Abstract thinking",true,2120,,,,,,,,,
66472a03650f9441b8f815d9,forced_choice,83,262,"Ability to wait",62,"Patience",true,"Social awareness",16,"Social awareness",false,"Ability to wait",62,"Patience",true,"Social awareness",16,"Social awareness",false,1449,,,,,,,,,
66472a03650f9441b8f815d9,forced_choice,84,262,"Asking questions",4,"Asking questions",false,"Social validation",20,"Social belonging",true,"Asking questions",4,"Asking questions",false,"Social validation",20,"Social belonging",true,1246,,,,,,,,,
66472a03650f9441b8f815d9,forced_choice,85,262,"Interpersonal participation",15,"Social activity",true,"Ingenuity",50,"Creativity and imagination",true,"Interpersonal participation",15,"Social activity",true,"Ingenuity",50,"Creativity and imagination",true,2079,,,,,,,,,
66472a03650f9441b8f815d9,forced_choice,86,262,"Individual championing",81,"Self-advocacy",true,"Symbolic processing",49,"Abstract thinking",true,"Individual championing",81,"Self-advocacy",true,"Symbolic processing",49,"Abstract thinking",true,1701,,,,,,,,,
66472a03650f9441b8f815d9,forced_choice,87,262,"Accepting diversity",59,"Respect for others",true,"Interpersonal participation",15,"Social activity",true,"Interpersonal participation",15,"Social activity",true,"Accepting diversity",59,"Respect for others",true,17251,,,,,,,,,
66472a03650f9441b8f815d9,forced_choice,88,262,"Seeking help",3,"Seeking help",false,"Class participation",89,"Class participation",false,"Seeking help",3,"Seeking help",false,"Class participation",89,"Class participation",false,2399,,,,,,,,,
66472a03650f9441b8f815d9,forced_choice,89,262,"Psychological toughness",28,"Resilience",true,"Personal security",21,"Sense of safety",true,"Psychological toughness",28,"Resilience",true,"Personal security",21,"Sense of safety",true,2964,,,,,,,,,
66472a03650f9441b8f815d9,forced_choice,90,262,"Task initiation",46,"Task initiation",false,"Justice",60,"Fairness",true,"Task initiation",46,"Task initiation",false,"Justice",60,"Fairness",true,1433,,,,,,,,,
66472a03650f9441b8f815d9,forced_choice,91,262,"Seeking help",3,"Seeking help",false,"Ingenuity",50,"Creativity and imagination",true,"Seeking help",3,"Seeking help",false,"Ingenuity",50,"Creativity and imagination",true,1730,,,,,,,,,
66472a03650f9441b8f815d9,forced_choice,92,262,"Personal security",21,"Sense of safety",true,"Social communication",14,"Social communication",false,"Social communication",14,"Social communication",false,"Personal security",21,"Sense of safety",true,1384,,,,,,,,,
66472a03650f9441b8f815d9,forced_choice,93,262,"Inner understanding",76,"Self-awareness",true,"Attention",40,"Attention",false,"Attention",40,"Attention",false,"Inner understanding",76,"Self-awareness",true,1878,,,,,,,,,
66472a03650f9441b8f815d9,forced_choice,94,262,"Finding solutions in one's surroundings",27,"Resourcefulness",true,"Social awareness",16,"Social awareness",false,"Social awareness",16,"Social awareness",false,"Finding solutions in one's surroundings",27,"Resourcefulness",true,2148,,,,,,,,,
66472a03650f9441b8f815d9,forced_choice,95,262,"Mood perception",31,"Emotional awareness",true,"Asking questions",4,"Asking questions",false,"Asking questions",4,"Asking questions",false,"Mood perception",31,"Emotional awareness",true,2116,,,,,,,,,
66472a03650f9441b8f815d9,forced_choice,96,262,"Ingenuity",50,"Creativity and imagination",true,"Social awareness",16,"Social awareness",false,"Social awareness",16,"Social awareness",false,"Ingenuity",50,"Creativity and imagination",true,1264,,,,,,,,,
66472a03650f9441b8f815d9,forced_choice,97,262,"Rate of thought processing",48,"Thinking speed",true,"Interpersonal participation",15,"Social activity",true,"Rate of thought processing",48,"Thinking speed",true,"Interpersonal participation",15,"Social activity",true,1801,,,,,,,,,
66472a03650f9441b8f815d9,forced_choice,98,262,"Psychological toughness",28,"Resilience",true,"Mood perception",31,"Emotional awareness",true,"Psychological toughness",28,"Resilience",true,"Mood perception",31,"Emotional awareness",true,15230,,,,,,,,,
66472a03650f9441b8f815d9,forced_choice,99,262,"Asking questions",4,"Asking questions",false,"Accepting diversity",59,"Respect for others",true,"Asking questions",4,"Asking questions",false,"Accepting diversity",59,"Respect for others",true,2664,,,,,,,,,
66472a03650f9441b8f815d9,forced_choice,100,262,"Social communication",14,"Social communication",false,"Ability to wait",62,"Patience",true,"Ability to wait",62,"Patience",true,"Social communication",14,"Social communication",false,1952,,,,,,,,,
66472a03650f9441b8f815d9,forced_choice,101,262,"Seeking help",3,"Seeking help",false,"Psychological toughness",28,"Resilience",true,"Seeking help",3,"Seeking help",false,"Psychological toughness",28,"Resilience",true,1342,,,,,,,,,
66472a03650f9441b8f815d9,forced_choice,102,262,"Exhaustion",85,"Sleep and fatigue",true,"Accepting diversity",59,"Respect for others",true,"Accepting diversity",59,"Respect for others",true,"Exhaustion",85,"Sleep and fatigue",true,2473,,,,,,,,,
66472a03650f9441b8f815d9,forced_choice,103,262,"Individual championing",81,"Self-advocacy",true,"Ability to wait",62,"Patience",true,"Ability to wait",62,"Patience",true,"Individual championing",81,"Self-advocacy",true,1410,,,,,,,,,
66472a03650f9441b8f815d9,forced_choice,104,262,"Setting and striving for goals",45,"Setting and striving for goals",false,"Interpersonal participation",15,"Social activity",true,"Setting and striving for goals",45,"Setting and striving for goals",false,"Interpersonal participation",15,"Social activity",true,1218,,,,,,,,,
66472a03650f9441b8f815d9,forced_choice,105,262,"Accepting diversity",59,"Respect for others",true,"Ability to wait",62,"Patience",true,"Ability to wait",62,"Patience",true,"Accepting diversity",59,"Respect for others",true,1319,,,,,,,,,
66472a03650f9441b8f815d9,forced_choice,106,262,"Mood perception",31,"Emotional awareness",true,"Accepting diversity",59,"Respect for others",true,"Mood perception",31,"Emotional awareness",true,"Accepting diversity",59,"Respect for others",true,2113,,,,,,,,,
66472a03650f9441b8f815d9,forced_choice,107,262,"Accepting diversity",59,"Respect for others",true,"Individual championing",81,"Self-advocacy",true,"Accepting diversity",59,"Respect for others",true,"Individual championing",81,"Self-advocacy",true,2631,,,,,,,,,
66472a03650f9441b8f815d9,forced_choice,108,262,"Symbolic processing",49,"Abstract thinking",true,"Setting and striving for goals",45,"Setting and striving for goals",false,"Setting and striving for goals",45,"Setting and striving for goals",false,"Symbolic processing",49,"Abstract thinking",true,1299,,,,,,,,,
66472a03650f9441b8f815d9,forced_choice,109,262,"Symbolic processing",49,"Abstract thinking",true,"Accepting diversity",59,"Respect for others",true,"Accepting diversity",59,"Respect for others",true,"Symbolic processing",49,"Abstract thinking",true,2261,,,,,,,,,
66472a03650f9441b8f815d9,attention_check,111,,,,,,,,,,,,,,,,,,4214,"Playing with others","Playing with others",true,,,,,,
66472a03650f9441b8f815d9,forced_choice,110,262,"Task initiation",46,"Task initiation",false,"Social validation",20,"Social belonging",true,"Task initiation",46,"Task initiation",false,"Social validation",20,"Social belonging",true,1854,,,,,,,,,
66472a03650f9441b8f815d9,forced_choice,111,262,"Task initiation",46,"Task initiation",false,"Setting and striving for goals",45,"Setting and striving for goals",false,"Setting and striving for goals",45,"Setting and striving for goals",false,"Task initiation",46,"Task initiation",false,1543,,,,,,,,,
66472a03650f9441b8f815d9,forced_choice,112,262,"Personal security",21,"Sense of safety",true,"Inner understanding",76,"Self-awareness",true,"Personal security",21,"Sense of safety",true,"Inner understanding",76,"Self-awareness",true,3688,,,,,,,,,
66472a03650f9441b8f815d9,forced_choice,113,262,"Personal security",21,"Sense of safety",true,"Exhaustion",85,"Sleep and fatigue",true,"Personal security",21,"Sense of safety",true,"Exhaustion",85,"Sleep and fatigue",true,1213,,,,,,,,,
66472a03650f9441b8f815d9,forced_choice,114,262,"Accepting diversity",59,"Respect for others",true,"Justice",60,"Fairness",true,"Accepting diversity",59,"Respect for others",true,"Justice",60,"Fairness",true,2681,,,,,,,,,
66472a03650f9441b8f815d9,forced_choice,115,262,"Class participation",89,"Class participation",false,"Mood perception",31,"Emotional awareness",true,"Class participation",89,"Class participation",false,"Mood perception",31,"Emotional awareness",true,1429,,,,,,,,,
66472a03650f9441b8f815d9,forced_choice,116,262,"Asking questions",4,"Asking questions",false,"Social cooperation",12,"Social cooperation",false,"Asking questions",4,"Asking questions",false,"Social cooperation",12,"Social cooperation",false,1365,,,,,,,,,
66472a03650f9441b8f815d9,forced_choice,117,262,"Mood perception",31,"Emotional awareness",true,"Social validation",20,"Social belonging",true,"Social validation",20,"Social belonging",true,"Mood perception",31,"Emotional awareness",true,1525,,,,,,,,,
66472a03650f9441b8f815d9,forced_choice,118,262,"Exhaustion",85,"Sleep and fatigue",true,"Social validation",20,"Social belonging",true,"Exhaustion",85,"Sleep and fatigue",true,"Social validation",20,"Social belonging",true,1689,,,,,,,,,
66472a03650f9441b8f815d9,forced_choice,119,262,"Symbolic processing",49,"Abstract thinking",true,"Seeking help",3,"Seeking help",false,"Seeking help",3,"Seeking help",false,"Symbolic processing",49,"Abstract thinking",true,3456,,,,,,,,,
66472a03650f9441b8f815d9,forced_choice,120,262,"Social validation",20,"Social belonging",true,"Ability to wait",62,"Patience",true,"Ability to wait",62,"Patience",true,"Social validation",20,"Social belonging",true,1812,,,,,,,,,
66472a03650f9441b8f815d9,forced_choice,121,262,"Inner understanding",76,"Self-awareness",true,"Seeking help",3,"Seeking help",false,"Seeking help",3,"Seeking help",false,"Inner understanding",76,"Self-awareness",true,1280,,,,,,,,,
66472a03650f9441b8f815d9,forced_choice,122,262,"Social cooperation",12,"Social cooperation",false,"Task initiation",46,"Task initiation",false,"Task initiation",46,"Task initiation",false,"Social cooperation",12,"Social cooperation",false,1264,,,,,,,,,
66472a03650f9441b8f815d9,forced_choice,123,262,"Social cooperation",12,"Social cooperation",false,"Social communication",14,"Social communication",false,"Social communication",14,"Social communication",false,"Social cooperation",12,"Social cooperation",false,1346,,,,,,,,,
66472a03650f9441b8f815d9,forced_choice,124,262,"Psychological toughness",28,"Resilience",true,"Attention",40,"Attention",false,"Psychological toughness",28,"Resilience",true,"Attention",40,"Attention",false,3471,,,,,,,,,
66472a03650f9441b8f815d9,forced_choice,125,262,"Memory",41,"Memory",false,"Ingenuity",50,"Creativity and imagination",true,"Ingenuity",50,"Creativity and imagination",true,"Memory",41,"Memory",false,1476,,,,,,,,,
66472a03650f9441b8f815d9,forced_choice,126,262,"Social awareness",16,"Social awareness",false,"Rate of thought processing",48,"Thinking speed",true,"Rate of thought processing",48,"Thinking speed",true,"Social awareness",16,"Social awareness",false,2254,,,,,,,,,
66472a03650f9441b8f815d9,forced_choice,127,262,"Social validation",20,"Social belonging",true,"Social communication",14,"Social communication",false,"Social communication",14,"Social communication",false,"Social validation",20,"Social belonging",true,2179,,,,,,,,,
66472a03650f9441b8f815d9,forced_choice,128,262,"Social communication",14,"Social communication",false,"Ingenuity",50,"Creativity and imagination",true,"Ingenuity",50,"Creativity and imagination",true,"Social communication",14,"Social communication",false,1965,,,,,,,,,
66472a03650f9441b8f815d9,forced_choice,129,262,"Task initiation",46,"Task initiation",false,"Asking questions",4,"Asking questions",false,"Task initiation",46,"Task initiation",false,"Asking questions",4,"Asking questions",false,2551,,,,,,,,,
66472a03650f9441b8f815d9,forced_choice,130,262,"Social cooperation",12,"Social cooperation",false,"Setting and striving for goals",45,"Setting and striving for goals",false,"Setting and striving for goals",45,"Setting and striving for goals",false,"Social cooperation",12,"Social cooperation",false,1733,,,,,,,,,
66472a03650f9441b8f815d9,forced_choice,131,262,"Setting and striving for goals",45,"Setting and striving for goals",false,"Exhaustion",85,"Sleep and fatigue",true,"Setting and striving for goals",45,"Setting and striving for goals",false,"Exhaustion",85,"Sleep and fatigue",true,1248,,,,,,,,,
66472a03650f9441b8f815d9,forced_choice,132,262,"Task initiation",46,"Task initiation",false,"Social communication",14,"Social communication",false,"Task initiation",46,"Task initiation",false,"Social communication",14,"Social communication",false,5746,,,,,,,,,
66472a03650f9441b8f815d9,forced_choice,133,262,"Social communication",14,"Social communication",false,"Accepting diversity",59,"Respect for others",true,"Social communication",14,"Social communication",false,"Accepting diversity",59,"Respect for others",true,1415,,,,,,,,,
66472a03650f9441b8f815d9,forced_choice,134,262,"Class participation",89,"Class participation",false,"Exhaustion",85,"Sleep and fatigue",true,"Class participation",89,"Class participation",false,"Exhaustion",85,"Sleep and fatigue",true,1466,,,,,,,,,
66472a03650f9441b8f815d9,forced_choice,135,262,"Seeking help",3,"Seeking help",false,"Memory",41,"Memory",false,"Seeking help",3,"Seeking help",false,"Memory",41,"Memory",false,1263,,,,,,,,,
66472a03650f9441b8f815d9,forced_choice,136,262,"Psychological toughness",28,"Resilience",true,"Navigating difficulties",25,"Coping skills",true,"Navigating difficulties",25,"Coping skills",true,"Psychological toughness",28,"Resilience",true,1619,,,,,,,,,
66472a03650f9441b8f815d9,forced_choice,137,262,"Symbolic processing",49,"Abstract thinking",true,"Social cooperation",12,"Social cooperation",false,"Social cooperation",12,"Social cooperation",false,"Symbolic processing",49,"Abstract thinking",true,2228,,,,,,,,,
66472a03650f9441b8f815d9,forced_choice,138,262,"Seeking help",3,"Seeking help",false,"Navigating difficulties",25,"Coping skills",true,"Navigating difficulties",25,"Coping skills",true,"Seeking help",3,"Seeking help",false,1415,,,,,,,,,
66472a03650f9441b8f815d9,forced_choice,139,262,"Rate of thought processing",48,"Thinking speed",true,"Social validation",20,"Social belonging",true,"Rate of thought processing",48,"Thinking speed",true,"Social validation",20,"Social belonging",true,1685,,,,,,,,,
66472a03650f9441b8f815d9,forced_choice,140,262,"Social cooperation",12,"Social cooperation",false,"Ability to wait",62,"Patience",true,"Social cooperation",12,"Social cooperation",false,"Ability to wait",62,"Patience",true,1408,,,,,,,,,
66472a03650f9441b8f815d9,forced_choice,141,262,"Attention",40,"Attention",false,"Class participation",89,"Class participation",false,"Class participation",89,"Class participation",false,"Attention",40,"Attention",false,1554,,,,,,,,,
66472a03650f9441b8f815d9,forced_choice,142,262,"Social communication",14,"Social communication",false,"Attention",40,"Attention",false,"Social communication",14,"Social communication",false,"Attention",40,"Attention",false,1265,,,,,,,,,
66472a03650f9441b8f815d9,forced_choice,143,262,"Personal security",21,"Sense of safety",true,"Seeking help",3,"Seeking help",false,"Seeking help",3,"Seeking help",false,"Personal security",21,"Sense of safety",true,1448,,,,,,,,,
66472a03650f9441b8f815d9,forced_choice,144,262,"Social validation",20,"Social belonging",true,"Accepting diversity",59,"Respect for others",true,"Accepting diversity",59,"Respect for others",true,"Social validation",20,"Social belonging",true,1429,,,,,,,,,
66472a03650f9441b8f815d9,forced_choice,145,262,"Memory",41,"Memory",false,"Social awareness",16,"Social awareness",false,"Social awareness",16,"Social awareness",false,"Memory",41,"Memory",false,3131,,,,,,,,,
66472a03650f9441b8f815d9,forced_choice,146,262,"Symbolic processing",49,"Abstract thinking",true,"Class participation",89,"Class participation",false,"Class participation",89,"Class participation",false,"Symbolic processing",49,"Abstract thinking",true,1266,,,,,,,,,
66472a03650f9441b8f815d9,forced_choice,147,262,"Memory",41,"Memory",false,"Asking questions",4,"Asking questions",false,"Asking questions",4,"Asking questions",false,"Memory",41,"Memory",false,1298,,,,,,,,,
66472a03650f9441b8f815d9,forced_choice,148,262,"Class participation",89,"Class participation",false,"Ability to wait",62,"Patience",true,"Class participation",89,"Class participation",false,"Ability to wait",62,"Patience",true,1685,,,,,,,,,
66472a03650f9441b8f815d9,forced_choice,149,262,"Inner understanding",76,"Self-awareness",true,"Psychological toughness",28,"Resilience",true,"Psychological toughness",28,"Resilience",true,"Inner understanding",76,"Self-awareness",true,2831,,,,,,,,,
66472a03650f9441b8f815d9,forced_choice,150,262,"Interpersonal participation",15,"Social activity",true,"Individual championing",81,"Self-advocacy",true,"Interpersonal participation",15,"Social activity",true,"Individual championing",81,"Self-advocacy",true,5299,,,,,,,,,
66472a03650f9441b8f815d9,forced_choice,151,262,"Setting and striving for goals",45,"Setting and striving for goals",false,"Inner understanding",76,"Self-awareness",true,"Setting and striving for goals",45,"Setting and striving for goals",false,"Inner understanding",76,"Self-awareness",true,1260,,,,,,,,,
66472a03650f9441b8f815d9,forced_choice,152,262,"Inner understanding",76,"Self-awareness",true,"Symbolic processing",49,"Abstract thinking",true,"Inner understanding",76,"Self-awareness",true,"Symbolic processing",49,"Abstract thinking",true,1883,,,,,,,,,
66472a03650f9441b8f815d9,forced_choice,153,262,"Asking questions",4,"Asking questions",false,"Inner understanding",76,"Self-awareness",true,"Asking questions",4,"Asking questions",false,"Inner understanding",76,"Self-awareness",true,1164,,,,,,,,,
66472a03650f9441b8f815d9,forced_choice,154,262,"Rate of thought processing",48,"Thinking speed",true,"Asking questions",4,"Asking questions",false,"Rate of thought processing",48,"Thinking speed",true,"Asking questions",4,"Asking questions",false,730,,,,,,,,,
66472a03650f9441b8f815d9,forced_choice,155,262,"Social validation",20,"Social belonging",true,"Individual championing",81,"Self-advocacy",true,"Social validation",20,"Social belonging",true,"Individual championing",81,"Self-advocacy",true,2584,,,,,,,,,
66472a03650f9441b8f815d9,forced_choice,156,262,"Accepting diversity",59,"Respect for others",true,"Social cooperation",12,"Social cooperation",false,"Social cooperation",12,"Social cooperation",false,"Accepting diversity",59,"Respect for others",true,1169,,,,,,,,,
66472a03650f9441b8f815d9,forced_choice,157,262,"Interpersonal participation",15,"Social activity",true,"Finding solutions in one's surroundings",27,"Resourcefulness",true,"Interpersonal participation",15,"Social activity",true,"Finding solutions in one's surroundings",27,"Resourcefulness",true,1597,,,,,,,,,
66472a03650f9441b8f815d9,forced_choice,158,262,"Inner understanding",76,"Self-awareness",true,"Ability to wait",62,"Patience",true,"Ability to wait",62,"Patience",true,"Inner understanding",76,"Self-awareness",true,1683,,,,,,,,,
66472a03650f9441b8f815d9,forced_choice,159,262,"Setting and striving for goals",45,"Setting and striving for goals",false,"Social communication",14,"Social communication",false,"Setting and striving for goals",45,"Setting and striving for goals",false,"Social communication",14,"Social communication",false,1349,,,,,,,,,
66472a03650f9441b8f815d9,forced_choice,160,262,"Asking questions",4,"Asking questions",false,"Symbolic processing",49,"Abstract thinking",true,"Asking questions",4,"Asking questions",false,"Symbolic processing",49,"Abstract thinking",true,1229,,,,,,,,,
66472a03650f9441b8f815d9,forced_choice,161,262,"Asking questions",4,"Asking questions",false,"Individual championing",81,"Self-advocacy",true,"Asking questions",4,"Asking questions",false,"Individual championing",81,"Self-advocacy",true,1112,,,,,,,,,
66472a03650f9441b8f815d9,forced_choice,162,262,"Finding solutions in one's surroundings",27,"Resourcefulness",true,"Psychological toughness",28,"Resilience",true,"Finding solutions in one's surroundings",27,"Resourcefulness",true,"Psychological toughness",28,"Resilience",true,2465,,,,,,,,,
66472a03650f9441b8f815d9,forced_choice,163,262,"Attention",40,"Attention",false,"Setting and striving for goals",45,"Setting and striving for goals",false,"Setting and striving for goals",45,"Setting and striving for goals",false,"Attention",40,"Attention",false,1168,,,,,,,,,
66472a03650f9441b8f815d9,forced_choice,164,262,"Personal security",21,"Sense of safety",true,"Interpersonal participation",15,"Social activity",true,"Interpersonal participation",15,"Social activity",true,"Personal security",21,"Sense of safety",true,3029,,,,,,,,,
66472a03650f9441b8f815d9,attention_check,167,,,,,,,,,,,,,,,,,,5986,"Paying attention","Paying attention",true,,,,,,
66472a03650f9441b8f815d9,forced_choice,165,262,"Mood perception",31,"Emotional awareness",true,"Memory",41,"Memory",false,"Memory",41,"Memory",false,"Mood perception",31,"Emotional awareness",true,2765,,,,,,,,,
66472a03650f9441b8f815d9,forced_choice,166,262,"Justice",60,"Fairness",true,"Social communication",14,"Social communication",false,"Social communication",14,"Social communication",false,"Justice",60,"Fairness",true,1178,,,,,,,,,
66472a03650f9441b8f815d9,forced_choice,167,262,"Mood perception",31,"Emotional awareness",true,"Social awareness",16,"Social awareness",false,"Mood perception",31,"Emotional awareness",true,"Social awareness",16,"Social awareness",false,2017,,,,,,,,,
66472a03650f9441b8f815d9,forced_choice,168,262,"Memory",41,"Memory",false,"Social cooperation",12,"Social cooperation",false,"Memory",41,"Memory",false,"Social cooperation",12,"Social cooperation",false,2696,,,,,,,,,
66472a03650f9441b8f815d9,forced_choice,169,262,"Seeking help",3,"Seeking help",false,"Interpersonal participation",15,"Social activity",true,"Seeking help",3,"Seeking help",false,"Interpersonal participation",15,"Social activity",true,1498,,,,,,,,,
66472a03650f9441b8f815d9,forced_choice,170,262,"Interpersonal participation",15,"Social activity",true,"Psychological toughness",28,"Resilience",true,"Psychological toughness",28,"Resilience",true,"Interpersonal participation",15,"Social activity",true,1418,,,,,,,,,
66472a03650f9441b8f815d9,forced_choice,171,262,"Class participation",89,"Class participation",false,"Personal security",21,"Sense of safety",true,"Class participation",89,"Class participation",false,"Personal security",21,"Sense of safety",true,2782,,,,,,,,,
66472a03650f9441b8f815d9,forced_choice,172,262,"Setting and striving for goals",45,"Setting and striving for goals",false,"Ingenuity",50,"Creativity and imagination",true,"Setting and striving for goals",45,"Setting and striving for goals",false,"Ingenuity",50,"Creativity and imagination",true,1495,,,,,,,,,
66472a03650f9441b8f815d9,forced_choice,173,262,"Exhaustion",85,"Sleep and fatigue",true,"Ability to wait",62,"Patience",true,"Ability to wait",62,"Patience",true,"Exhaustion",85,"Sleep and fatigue",true,1234,,,,,,,,,
66472a03650f9441b8f815d9,forced_choice,174,262,"Attention",40,"Attention",false,"Personal security",21,"Sense of safety",true,"Personal security",21,"Sense of safety",true,"Attention",40,"Attention",false,1996,,,,,,,,,
66472a03650f9441b8f815d9,forced_choice,175,262,"Class participation",89,"Class participation",false,"Setting and striving for goals",45,"Setting and striving for goals",false,"Setting and striving for goals",45,"Setting and striving for goals",false,"Class participation",89,"Class participation",false,1547,,,,,,,,,
66472a03650f9441b8f815d9,forced_choice,176,262,"Social cooperation",12,"Social cooperation",false,"Navigating difficulties",25,"Coping skills",true,"Navigating difficulties",25,"Coping skills",true,"Social cooperation",12,"Social cooperation",false,1765,,,,,,,,,
66472a03650f9441b8f815d9,forced_choice,177,262,"Social communication",14,"Social communication",false,"Psychological toughness",28,"Resilience",true,"Social communication",14,"Social communication",false,"Psychological toughness",28,"Resilience",true,1870,,,,,,,,,
66472a03650f9441b8f815d9,forced_choice,178,262,"Individual championing",81,"Self-advocacy",true,"Exhaustion",85,"Sleep and fatigue",true,"Individual championing",81,"Self-advocacy",true,"Exhaustion",85,"Sleep and fatigue",true,1861,,,,,,,,,
66472a03650f9441b8f815d9,forced_choice,179,262,"Attention",40,"Attention",false,"Mood perception",31,"Emotional awareness",true,"Mood perception",31,"Emotional awareness",true,"Attention",40,"Attention",false,1567,,,,,,,,,
66472a03650f9441b8f815d9,forced_choice,180,262,"Social awareness",16,"Social awareness",false,"Navigating difficulties",25,"Coping skills",true,"Navigating difficulties",25,"Coping skills",true,"Social awareness",16,"Social awareness",false,1712,,,,,,,,,
66472a03650f9441b8f815d9,forced_choice,181,262,"Setting and striving for goals",45,"Setting and striving for goals",false,"Accepting diversity",59,"Respect for others",true,"Setting and striving for goals",45,"Setting and striving for goals",false,"Accepting diversity",59,"Respect for others",true,1035,,,,,,,,,
66472a03650f9441b8f815d9,forced_choice,182,262,"Interpersonal participation",15,"Social activity",true,"Symbolic processing",49,"Abstract thinking",true,"Interpersonal participation",15,"Social activity",true,"Symbolic processing",49,"Abstract thinking",true,3011,,,,,,,,,
66472a03650f9441b8f815d9,forced_choice,183,262,"Seeking help",3,"Seeking help",false,"Setting and striving for goals",45,"Setting and striving for goals",false,"Setting and striving for goals",45,"Setting and striving for goals",false,"Seeking help",3,"Seeking help",false,1402,,,,,,,,,
66472a03650f9441b8f815d9,forced_choice,184,262,"Psychological toughness",28,"Resilience",true,"Accepting diversity",59,"Respect for others",true,"Psychological toughness",28,"Resilience",true,"Accepting diversity",59,"Respect for others",true,3983,,,,,,,,,
66472a03650f9441b8f815d9,forced_choice,185,262,"Social validation",20,"Social belonging",true,"Inner understanding",76,"Self-awareness",true,"Social validation",20,"Social belonging",true,"Inner understanding",76,"Self-awareness",true,2162,,,,,,,,,
66472a03650f9441b8f815d9,forced_choice,186,262,"Social awareness",16,"Social awareness",false,"Interpersonal participation",15,"Social activity",true,"Social awareness",16,"Social awareness",false,"Interpersonal participation",15,"Social activity",true,3264,,,,,,,,,
66472a03650f9441b8f815d9,forced_choice,187,262,"Finding solutions in one's surroundings",27,"Resourcefulness",true,"Mood perception",31,"Emotional awareness",true,"Mood perception",31,"Emotional awareness",true,"Finding solutions in one's surroundings",27,"Resourcefulness",true,1384,,,,,,,,,
66472a03650f9441b8f815d9,forced_choice,188,262,"Task initiation",46,"Task initiation",false,"Psychological toughness",28,"Resilience",true,"Task initiation",46,"Task initiation",false,"Psychological toughness",28,"Resilience",true,1349,,,,,,,,,
66472a03650f9441b8f815d9,forced_choice,189,262,"Social communication",14,"Social communication",false,"Finding solutions in one's surroundings",27,"Resourcefulness",true,"Social communication",14,"Social communication",false,"Finding solutions in one's surroundings",27,"Resourcefulness",true,1895,,,,,,,,,
66472a03650f9441b8f815d9,forced_choice,190,262,"Asking questions",4,"Asking questions",false,"Seeking help",3,"Seeking help",false,"Asking questions",4,"Asking questions",false,"Seeking help",3,"Seeking help",false,52699,,,,,,,,,
66472a03650f9441b8f815d9,forced_choice,191,262,"Psychological toughness",28,"Resilience",true,"Asking questions",4,"Asking questions",false,"Asking questions",4,"Asking questions",false,"Psychological toughness",28,"Resilience",true,1564,,,,,,,,,
66472a03650f9441b8f815d9,forced_choice,192,262,"Class participation",89,"Class participation",false,"Individual championing",81,"Self-advocacy",true,"Class participation",89,"Class participation",false,"Individual championing",81,"Self-advocacy",true,1946,,,,,,,,,
66472a03650f9441b8f815d9,forced_choice,193,262,"Finding solutions in one's surroundings",27,"Resourcefulness",true,"Inner understanding",76,"Self-awareness",true,"Inner understanding",76,"Self-awareness",true,"Finding solutions in one's surroundings",27,"Resourcefulness",true,1615,,,,,,,,,
66472a03650f9441b8f815d9,forced_choice,194,262,"Justice",60,"Fairness",true,"Individual championing",81,"Self-advocacy",true,"Individual championing",81,"Self-advocacy",true,"Justice",60,"Fairness",true,1447,,,,,,,,,
66472a03650f9441b8f815d9,forced_choice,195,262,"Social validation",20,"Social belonging",true,"Finding solutions in one's surroundings",27,"Resourcefulness",true,"Finding solutions in one's surroundings",27,"Resourcefulness",true,"Social validation",20,"Social belonging",true,1596,,,,,,,,,
66472a03650f9441b8f815d9,forced_choice,196,262,"Ability to wait",62,"Patience",true,"Rate of thought processing",48,"Thinking speed",true,"Rate of thought processing",48,"Thinking speed",true,"Ability to wait",62,"Patience",true,2433,,,,,,,,,
66472a03650f9441b8f815d9,forced_choice,197,262,"Asking questions",4,"Asking questions",false,"Ingenuity",50,"Creativity and imagination",true,"Asking questions",4,"Asking questions",false,"Ingenuity",50,"Creativity and imagination",true,1865,,,,,,,,,
66472a03650f9441b8f815d9,forced_choice,198,262,"Social awareness",16,"Social awareness",false,"Setting and striving for goals",45,"Setting and striving for goals",false,"Setting and striving for goals",45,"Setting and striving for goals",false,"Social awareness",16,"Social awareness",false,1782,,,,,,,,,
66472a03650f9441b8f815d9,forced_choice,199,262,"Psychological toughness",28,"Resilience",true,"Social cooperation",12,"Social cooperation",false,"Social cooperation",12,"Social cooperation",false,"Psychological toughness",28,"Resilience",true,2181,,,,,,,,,
66472a03650f9441b8f815d9,forced_choice,200,262,"Rate of thought processing",48,"Thinking speed",true,"Individual championing",81,"Self-advocacy",true,"Rate of thought processing",48,"Thinking speed",true,"Individual championing",81,"Self-advocacy",true,1548,,,,,,,,,
66472a03650f9441b8f815d9,forced_choice,201,262,"Rate of thought processing",48,"Thinking speed",true,"Setting and striving for goals",45,"Setting and striving for goals",false,"Setting and striving for goals",45,"Setting and striving for goals",false,"Rate of thought processing",48,"Thinking speed",true,1510,,,,,,,,,
66472a03650f9441b8f815d9,forced_choice,202,262,"Individual championing",81,"Self-advocacy",true,"Ingenuity",50,"Creativity and imagination",true,"Ingenuity",50,"Creativity and imagination",true,"Individual championing",81,"Self-advocacy",true,1565,,,,,,,,,
66472a03650f9441b8f815d9,forced_choice,203,262,"Rate of thought processing",48,"Thinking speed",true,"Memory",41,"Memory",false,"Rate of thought processing",48,"Thinking speed",true,"Memory",41,"Memory",false,1389,,,,,,,,,
66472a03650f9441b8f815d9,forced_choice,204,262,"Interpersonal participation",15,"Social activity",true,"Mood perception",31,"Emotional awareness",true,"Interpersonal participation",15,"Social activity",true,"Mood perception",31,"Emotional awareness",true,1962,,,,,,,,,
66472a03650f9441b8f815d9,forced_choice,205,262,"Ability to wait",62,"Patience",true,"Navigating difficulties",25,"Coping skills",true,"Ability to wait",62,"Patience",true,"Navigating difficulties",25,"Coping skills",true,1467,,,,,,,,,
66472a03650f9441b8f815d9,forced_choice,206,262,"Social awareness",16,"Social awareness",false,"Attention",40,"Attention",false,"Attention",40,"Attention",false,"Social awareness",16,"Social awareness",false,2949,,,,,,,,,
66472a03650f9441b8f815d9,forced_choice,207,262,"Ingenuity",50,"Creativity and imagination",true,"Exhaustion",85,"Sleep and fatigue",true,"Ingenuity",50,"Creativity and imagination",true,"Exhaustion",85,"Sleep and fatigue",true,5999,,,,,,,,,
66472a03650f9441b8f815d9,forced_choice,208,262,"Ability to wait",62,"Patience",true,"Mood perception",31,"Emotional awareness",true,"Ability to wait",62,"Patience",true,"Mood perception",31,"Emotional awareness",true,1328,,,,,,,,,
66472a03650f9441b8f815d9,forced_choice,209,262,"Finding solutions in one's surroundings",27,"Resourcefulness",true,"Justice",60,"Fairness",true,"Finding solutions in one's surroundings",27,"Resourcefulness",true,"Justice",60,"Fairness",true,1682,,,,,,,,,
66472a03650f9441b8f815d9,forced_choice,210,262,"Class participation",89,"Class participation",false,"Justice",60,"Fairness",true,"Class participation",89,"Class participation",false,"Justice",60,"Fairness",true,1531,,,,,,,,,
66472a03650f9441b8f815d9,forced_choice,211,262,"Asking questions",4,"Asking questions",false,"Personal security",21,"Sense of safety",true,"Asking questions",4,"Asking questions",false,"Personal security",21,"Sense of safety",true,1432,,,,,,,,,
66472a03650f9441b8f815d9,forced_choice,212,262,"Ingenuity",50,"Creativity and imagination",true,"Rate of thought processing",48,"Thinking speed",true,"Ingenuity",50,"Creativity and imagination",true,"Rate of thought processing",48,"Thinking speed",true,1631,,,,,,,,,
66472a03650f9441b8f815d9,forced_choice,213,262,"Navigating difficulties",25,"Coping skills",true,"Rate of thought processing",48,"Thinking speed",true,"Navigating difficulties",25,"Coping skills",true,"Rate of thought processing",48,"Thinking speed",true,2061,,,,,,,,,
66472a03650f9441b8f815d9,forced_choice,214,262,"Social validation",20,"Social belonging",true,"Social awareness",16,"Social awareness",false,"Social awareness",16,"Social awareness",false,"Social validation",20,"Social belonging",true,3369,,,,,,,,,
66472a03650f9441b8f815d9,forced_choice,215,262,"Navigating difficulties",25,"Coping skills",true,"Finding solutions in one's surroundings",27,"Resourcefulness",true,"Navigating difficulties",25,"Coping skills",true,"Finding solutions in one's surroundings",27,"Resourcefulness",true,2052,,,,,,,,,
66472a03650f9441b8f815d9,forced_choice,216,262,"Accepting diversity",59,"Respect for others",true,"Task initiation",46,"Task initiation",false,"Task initiation",46,"Task initiation",false,"Accepting diversity",59,"Respect for others",true,2265,,,,,,,,,
66472a03650f9441b8f815d9,forced_choice,217,262,"Exhaustion",85,"Sleep and fatigue",true,"Seeking help",3,"Seeking help",false,"Seeking help",3,"Seeking help",false,"Exhaustion",85,"Sleep and fatigue",true,1278,,,,,,,,,
66472a03650f9441b8f815d9,forced_choice,218,262,"Setting and striving for goals",45,"Setting and striving for goals",false,"Personal security",21,"Sense of safety",true,"Setting and striving for goals",45,"Setting and striving for goals",false,"Personal security",21,"Sense of safety",true,1685,,,,,,,,,
66472a03650f9441b8f815d9,forced_choice,219,262,"Seeking help",3,"Seeking help",false,"Social communication",14,"Social communication",false,"Seeking help",3,"Seeking help",false,"Social communication",14,"Social communication",false,2295,,,,,,,,,
66472a03650f9441b8f815d9,attention_check,223,,,,,,,,,,,,,,,,,,4498,"Social skills","Social skills",true,,,,,,
66472a03650f9441b8f815d9,forced_choice,220,262,"Psychological toughness",28,"Resilience",true,"Setting and striving for goals",45,"Setting and striving for goals",false,"Setting and striving for goals",45,"Setting and striving for goals",false,"Psychological toughness",28,"Resilience",true,1986,,,,,,,,,
66472a03650f9441b8f815d9,forced_choice,221,262,"Seeking help",3,"Seeking help",false,"Social validation",20,"Social belonging",true,"Seeking help",3,"Seeking help",false,"Social validation",20,"Social belonging",true,4015,,,,,,,,,
66472a03650f9441b8f815d9,forced_choice,222,262,"Memory",41,"Memory",false,"Inner understanding",76,"Self-awareness",true,"Memory",41,"Memory",false,"Inner understanding",76,"Self-awareness",true,2644,,,,,,,,,
66472a03650f9441b8f815d9,forced_choice,223,262,"Mood perception",31,"Emotional awareness",true,"Rate of thought processing",48,"Thinking speed",true,"Rate of thought processing",48,"Thinking speed",true,"Mood perception",31,"Emotional awareness",true,1701,,,,,,,,,
66472a03650f9441b8f815d9,forced_choice,224,262,"Finding solutions in one's surroundings",27,"Resourcefulness",true,"Exhaustion",85,"Sleep and fatigue",true,"Finding solutions in one's surroundings",27,"Resourcefulness",true,"Exhaustion",85,"Sleep and fatigue",true,1583,,,,,,,,,
66472a03650f9441b8f815d9,forced_choice,225,262,"Class participation",89,"Class participation",false,"Interpersonal participation",15,"Social activity",true,"Class participation",89,"Class participation",false,"Interpersonal participation",15,"Social activity",true,1747,,,,,,,,,
66472a03650f9441b8f815d9,forced_choice,226,262,"Memory",41,"Memory",false,"Personal security",21,"Sense of safety",true,"Personal security",21,"Sense of safety",true,"Memory",41,"Memory",false,3416,,,,,,,,,
66472a03650f9441b8f815d9,forced_choice,227,262,"Rate of thought processing",48,"Thinking speed",true,"Symbolic processing",49,"Abstract thinking",true,"Rate of thought processing",48,"Thinking speed",true,"Symbolic processing",49,"Abstract thinking",true,1415,,,,,,,,,
66472a03650f9441b8f815d9,forced_choice,228,262,"Personal security",21,"Sense of safety",true,"Mood perception",31,"Emotional awareness",true,"Mood perception",31,"Emotional awareness",true,"Personal security",21,"Sense of safety",true,1565,,,,,,,,,
66472a03650f9441b8f815d9,forced_choice,229,262,"Psychological toughness",28,"Resilience",true,"Individual championing",81,"Self-advocacy",true,"Psychological toughness",28,"Resilience",true,"Individual championing",81,"Self-advocacy",true,5730,,,,,,,,,
66472a03650f9441b8f815d9,forced_choice,230,262,"Ingenuity",50,"Creativity and imagination",true,"Justice",60,"Fairness",true,"Ingenuity",50,"Creativity and imagination",true,"Justice",60,"Fairness",true,1497,,,,,,,,,
66472a03650f9441b8f815d9,forced_choice,231,262,"Task initiation",46,"Task initiation",false,"Social awareness",16,"Social awareness",false,"Task initiation",46,"Task initiation",false,"Social awareness",16,"Social awareness",false,1715,,,,,,,,,
66472a03650f9441b8f815d9,forced_choice,232,262,"Interpersonal participation",15,"Social activity",true,"Social validation",20,"Social belonging",true,"Interpersonal participation",15,"Social activity",true,"Social validation",20,"Social belonging",true,3748,,,,,,,,,
66472a03650f9441b8f815d9,forced_choice,233,262,"Seeking help",3,"Seeking help",false,"Task initiation",46,"Task initiation",false,"Seeking help",3,"Seeking help",false,"Task initiation",46,"Task initiation",false,2048,,,,,,,,,
66472a03650f9441b8f815d9,forced_choice,234,262,"Personal security",21,"Sense of safety",true,"Rate of thought processing",48,"Thinking speed",true,"Rate of thought processing",48,"Thinking speed",true,"Personal security",21,"Sense of safety",true,2268,,,,,,,,,
66472a03650f9441b8f815d9,forced_choice,235,262,"Attention",40,"Attention",false,"Exhaustion",85,"Sleep and fatigue",true,"Attention",40,"Attention",false,"Exhaustion",85,"Sleep and fatigue",true,2047,,,,,,,,,
66472a03650f9441b8f815d9,forced_choice,236,262,"Interpersonal participation",15,"Social activity",true,"Asking questions",4,"Asking questions",false,"Asking questions",4,"Asking questions",false,"Interpersonal participation",15,"Social activity",true,1484,,,,,,,,,
66472a03650f9441b8f815d9,forced_choice,237,262,"Justice",60,"Fairness",true,"Asking questions",4,"Asking questions",false,"Asking questions",4,"Asking questions",false,"Justice",60,"Fairness",true,1094,,,,,,,,,
66472a03650f9441b8f815d9,forced_choice,238,262,"Memory",41,"Memory",false,"Interpersonal participation",15,"Social activity",true,"Memory",41,"Memory",false,"Interpersonal participation",15,"Social activity",true,2587,,,,,,,,,
66472a03650f9441b8f815d9,forced_choice,239,262,"Justice",60,"Fairness",true,"Personal security",21,"Sense of safety",true,"Personal security",21,"Sense of safety",true,"Justice",60,"Fairness",true,1229,,,,,,,,,
66472a03650f9441b8f815d9,forced_choice,240,262,"Social cooperation",12,"Social cooperation",false,"Individual championing",81,"Self-advocacy",true,"Individual championing",81,"Self-advocacy",true,"Social cooperation",12,"Social cooperation",false,2195,,,,,,,,,
66472a03650f9441b8f815d9,forced_choice,241,262,"Memory",41,"Memory",false,"Task initiation",46,"Task initiation",false,"Task initiation",46,"Task initiation",false,"Memory",41,"Memory",false,2101,,,,,,,,,
66472a03650f9441b8f815d9,forced_choice,242,262,"Class participation",89,"Class participation",false,"Psychological toughness",28,"Resilience",true,"Class participation",89,"Class participation",false,"Psychological toughness",28,"Resilience",true,1583,,,,,,,,,
66472a03650f9441b8f815d9,forced_choice,243,262,"Memory",41,"Memory",false,"Attention",40,"Attention",false,"Attention",40,"Attention",false,"Memory",41,"Memory",false,2432,,,,,,,,,
66472a03650f9441b8f815d9,forced_choice,244,262,"Attention",40,"Attention",false,"Asking questions",4,"Asking questions",false,"Asking questions",4,"Asking questions",false,"Attention",40,"Attention",false,1315,,,,,,,,,
66472a03650f9441b8f815d9,forced_choice,245,262,"Social cooperation",12,"Social cooperation",false,"Mood perception",31,"Emotional awareness",true,"Social cooperation",12,"Social cooperation",false,"Mood perception",31,"Emotional awareness",true,2049,,,,,,,,,
66472a03650f9441b8f815d9,forced_choice,246,262,"Rate of thought processing",48,"Thinking speed",true,"Justice",60,"Fairness",true,"Rate of thought processing",48,"Thinking speed",true,"Justice",60,"Fairness",true,1229,,,,,,,,,
66472a03650f9441b8f815d9,forced_choice,247,262,"Attention",40,"Attention",false,"Ingenuity",50,"Creativity and imagination",true,"Ingenuity",50,"Creativity and imagination",true,"Attention",40,"Attention",false,1568,,,,,,,,,
66472a03650f9441b8f815d9,forced_choice,248,262,"Setting and striving for goals",45,"Setting and striving for goals",false,"Social validation",20,"Social belonging",true,"Setting and striving for goals",45,"Setting and striving for goals",false,"Social validation",20,"Social belonging",true,1532,,,,,,,,,
66472a03650f9441b8f815d9,forced_choice,249,262,"Social awareness",16,"Social awareness",false,"Seeking help",3,"Seeking help",false,"Seeking help",3,"Seeking help",false,"Social awareness",16,"Social awareness",false,1697,,,,,,,,,
66472a03650f9441b8f815d9,forced_choice,250,262,"Social awareness",16,"Social awareness",false,"Asking questions",4,"Asking questions",false,"Asking questions",4,"Asking questions",false,"Social awareness",16,"Social awareness",false,9263,,,,,,,,,
66472a03650f9441b8f815d9,forced_choice,251,262,"Psychological toughness",28,"Resilience",true,"Justice",60,"Fairness",true,"Psychological toughness",28,"Resilience",true,"Justice",60,"Fairness",true,2434,,,,,,,,,
66472a03650f9441b8f815d9,forced_choice,252,262,"Attention",40,"Attention",false,"Symbolic processing",49,"Abstract thinking",true,"Attention",40,"Attention",false,"Symbolic processing",49,"Abstract thinking",true,15392,,,,,,,,,
66472a03650f9441b8f815d9,forced_choice,253,262,"Task initiation",46,"Task initiation",false,"Personal security",21,"Sense of safety",true,"Task initiation",46,"Task initiation",false,"Personal security",21,"Sense of safety",true,1234,,,,,,,,,
66472a03650f9441b8f815d9,forced_choice,254,262,"Inner understanding",76,"Self-awareness",true,"Rate of thought processing",48,"Thinking speed",true,"Rate of thought processing",48,"Thinking speed",true,"Inner understanding",76,"Self-awareness",true,1368,,,,,,,,,
66472a03650f9441b8f815d9,forced_choice,255,262,"Ability to wait",62,"Patience",true,"Memory",41,"Memory",false,"Ability to wait",62,"Patience",true,"Memory",41,"Memory",false,1682,,,,,,,,,
66472a03650f9441b8f815d9,forced_choice,256,262,"Symbolic processing",49,"Abstract thinking",true,"Exhaustion",85,"Sleep and fatigue",true,"Symbolic processing",49,"Abstract thinking",true,"Exhaustion",85,"Sleep and fatigue",true,1379,,,,,,,,,
66472a03650f9441b8f815d9,forced_choice,257,262,"Inner understanding",76,"Self-awareness",true,"Navigating difficulties",25,"Coping skills",true,"Navigating difficulties",25,"Coping skills",true,"Inner understanding",76,"Self-awareness",true,1434,,,,,,,,,
66472a03650f9441b8f815d9,forced_choice,258,262,"Class participation",89,"Class participation",false,"Task initiation",46,"Task initiation",false,"Task initiation",46,"Task initiation",false,"Class participation",89,"Class participation",false,3111,,,,,,,,,
66472a03650f9441b8f815d9,forced_choice,259,262,"Accepting diversity",59,"Respect for others",true,"Ingenuity",50,"Creativity and imagination",true,"Accepting diversity",59,"Respect for others",true,"Ingenuity",50,"Creativity and imagination",true,1969,,,,,,,,,
66472a03650f9441b8f815d9,forced_choice,260,262,"Ability to wait",62,"Patience",true,"Task initiation",46,"Task initiation",false,"Task initiation",46,"Task initiation",false,"Ability to wait",62,"Patience",true,2249,,,,,,,,,
66472a03650f9441b8f815d9,forced_choice,261,262,"Individual championing",81,"Self-advocacy",true,"Mood perception",31,"Emotional awareness",true,"Individual championing",81,"Self-advocacy",true,"Mood perception",31,"Emotional awareness",true,3215,,,,,,,,,
66472a03650f9441b8f815d9,forced_choice,262,262,"Class participation",89,"Class participation",false,"Ingenuity",50,"Creativity and imagination",true,"Ingenuity",50,"Creativity and imagination",true,"Class participation",89,"Class participation",false,2783,,,,,,,,,
66472a03650f9441b8f815d9,forced_choice,263,262,"Seeking help",3,"Seeking help",false,"Finding solutions in one's surroundings",27,"Resourcefulness",true,"Seeking help",3,"Seeking help",false,"Finding solutions in one's surroundings",27,"Resourcefulness",true,3614,,,,,,,,,
66472a03650f9441b8f815d9,forced_choice,264,262,"Inner understanding",76,"Self-awareness",true,"Social cooperation",12,"Social cooperation",false,"Social cooperation",12,"Social cooperation",false,"Inner understanding",76,"Self-awareness",true,2163,,,,,,,,,
66472a03650f9441b8f815d9,forced_choice,265,262,"Rate of thought processing",48,"Thinking speed",true,"Psychological toughness",28,"Resilience",true,"Rate of thought processing",48,"Thinking speed",true,"Psychological toughness",28,"Resilience",true,1968,,,,,,,,,
66472a03650f9441b8f815d9,forced_choice,266,262,"Finding solutions in one's surroundings",27,"Resourcefulness",true,"Ability to wait",62,"Patience",true,"Ability to wait",62,"Patience",true,"Finding solutions in one's surroundings",27,"Resourcefulness",true,3649,,,,,,,,,
66472a03650f9441b8f815d9,forced_choice,267,262,"Social communication",14,"Social communication",false,"Memory",41,"Memory",false,"Memory",41,"Memory",false,"Social communication",14,"Social communication",false,2265,,,,,,,,,
66472a03650f9441b8f815d9,forced_choice,268,262,"Social communication",14,"Social communication",false,"Navigating difficulties",25,"Coping skills",true,"Navigating difficulties",25,"Coping skills",true,"Social communication",14,"Social communication",false,1980,,,,,,,,,
66472a03650f9441b8f815d9,forced_choice,269,262,"Social validation",20,"Social belonging",true,"Justice",60,"Fairness",true,"Social validation",20,"Social belonging",true,"Justice",60,"Fairness",true,1899,,,,,,,,,
66472a03650f9441b8f815d9,forced_choice,270,262,"Memory",41,"Memory",false,"Class participation",89,"Class participation",false,"Class participation",89,"Class participation",false,"Memory",41,"Memory",false,1149,,,,,,,,,
66472a03650f9441b8f815d9,forced_choice,271,262,"Task initiation",46,"Task initiation",false,"Finding solutions in one's surroundings",27,"Resourcefulness",true,"Task initiation",46,"Task initiation",false,"Finding solutions in one's surroundings",27,"Resourcefulness",true,1364,,,,,,,,,
66472a03650f9441b8f815d9,forced_choice,272,262,"Setting and striving for goals",45,"Setting and striving for goals",false,"Individual championing",81,"Self-advocacy",true,"Setting and striving for goals",45,"Setting and striving for goals",false,"Individual championing",81,"Self-advocacy",true,2745,,,,,,,,,
66472a03650f9441b8f815d9,forced_choice,273,262,"Psychological toughness",28,"Resilience",true,"Social validation",20,"Social belonging",true,"Psychological toughness",28,"Resilience",true,"Social validation",20,"Social belonging",true,2332,,,,,,,,,
66472a03650f9441b8f815d9,forced_choice,274,262,"Navigating difficulties",25,"Coping skills",true,"Social validation",20,"Social belonging",true,"Navigating difficulties",25,"Coping skills",true,"Social validation",20,"Social belonging",true,3215,,,,,,,,,
66472a03650f9441b8f815d9,attention_check,279,,,,,,,,,,,,,,,,,,2400,"Managing emotions","Managing emotions",true,,,,,,
66472a03650f9441b8f815d9,forced_choice,275,262,"Psychological toughness",28,"Resilience",true,"Exhaustion",85,"Sleep and fatigue",true,"Psychological toughness",28,"Resilience",true,"Exhaustion",85,"Sleep and fatigue",true,8099,,,,,,,,,
66472a03650f9441b8f815d9,forced_choice,276,262,"Attention",40,"Attention",false,"Finding solutions in one's surroundings",27,"Resourcefulness",true,"Attention",40,"Attention",false,"Finding solutions in one's surroundings",27,"Resourcefulness",true,1328,,,,,,,,,
66472a03650f9441b8f815d9,forced_choice,277,262,"Attention",40,"Attention",false,"Rate of thought processing",48,"Thinking speed",true,"Rate of thought processing",48,"Thinking speed",true,"Attention",40,"Attention",false,1319,,,,,,,,,
66472a03650f9441b8f815d9,forced_choice,278,262,"Justice",60,"Fairness",true,"Social cooperation",12,"Social cooperation",false,"Social cooperation",12,"Social cooperation",false,"Justice",60,"Fairness",true,1312,,,,,,,,,
66472a03650f9441b8f815d9,forced_choice,279,262,"Attention",40,"Attention",false,"Justice",60,"Fairness",true,"Attention",40,"Attention",false,"Justice",60,"Fairness",true,1251,,,,,,,,,
66472a03650f9441b8f815d9,forced_choice,280,262,"Social awareness",16,"Social awareness",false,"Social communication",14,"Social communication",false,"Social communication",14,"Social communication",false,"Social awareness",16,"Social awareness",false,1649,,,,,,,,,
66472a03650f9441b8f815d9,forced_choice,281,262,"Memory",41,"Memory",false,"Accepting diversity",59,"Respect for others",true,"Memory",41,"Memory",false,"Accepting diversity",59,"Respect for others",true,1381,,,,,,,,,
66472a03650f9441b8f815d9,forced_choice,282,262,"Ingenuity",50,"Creativity and imagination",true,"Ability to wait",62,"Patience",true,"Ingenuity",50,"Creativity and imagination",true,"Ability to wait",62,"Patience",true,1246,,,,,,,,,
66472a03650f9441b8f815d9,forced_choice,283,262,"Social communication",14,"Social communication",false,"Symbolic processing",49,"Abstract thinking",true,"Social communication",14,"Social communication",false,"Symbolic processing",49,"Abstract thinking",true,1612,,,,,,,,,
66472a03650f9441b8f815d9,forced_choice,284,262,"Navigating difficulties",25,"Coping skills",true,"Asking questions",4,"Asking questions",false,"Asking questions",4,"Asking questions",false,"Navigating difficulties",25,"Coping skills",true,1370,,,,,,,,,
66472a03650f9441b8f815d9,forced_choice,285,262,"Navigating difficulties",25,"Coping skills",true,"Exhaustion",85,"Sleep and fatigue",true,"Exhaustion",85,"Sleep and fatigue",true,"Navigating difficulties",25,"Coping skills",true,1215,,,,,,,,,
66472a03650f9441b8f815d9,forced_choice,286,262,"Rate of thought processing",48,"Thinking speed",true,"Accepting diversity",59,"Respect for others",true,"Rate of thought processing",48,"Thinking speed",true,"Accepting diversity",59,"Respect for others",true,1499,,,,,,,,,
66472a03650f9441b8f815d9,forced_choice,287,262,"Exhaustion",85,"Sleep and fatigue",true,"Social awareness",16,"Social awareness",false,"Exhaustion",85,"Sleep and fatigue",true,"Social awareness",16,"Social awareness",false,1656,,,,,,,,,
66472a03650f9441b8f815d9,forced_choice,288,262,"Task initiation",46,"Task initiation",false,"Rate of thought processing",48,"Thinking speed",true,"Rate of thought processing",48,"Thinking speed",true,"Task initiation",46,"Task initiation",false,3354,,,,,,,,,
66472a03650f9441b8f815d9,forced_choice,289,262,"Accepting diversity",59,"Respect for others",true,"Inner understanding",76,"Self-awareness",true,"Inner understanding",76,"Self-awareness",true,"Accepting diversity",59,"Respect for others",true,2182,,,,,,,,,
66472a03650f9441b8f815d9,forced_choice,290,262,"Social validation",20,"Social belonging",true,"Personal security",21,"Sense of safety",true,"Personal security",21,"Sense of safety",true,"Social validation",20,"Social belonging",true,2880,,,,,,,,,
66472a03650f9441b8f815d9,forced_choice,291,262,"Social validation",20,"Social belonging",true,"Symbolic processing",49,"Abstract thinking",true,"Symbolic processing",49,"Abstract thinking",true,"Social validation",20,"Social belonging",true,3735,,,,,,,,,
66472a03650f9441b8f815d9,forced_choice,292,262,"Memory",41,"Memory",false,"Individual championing",81,"Self-advocacy",true,"Memory",41,"Memory",false,"Individual championing",81,"Self-advocacy",true,1366,,,,,,,,,
66472a03650f9441b8f815d9,forced_choice,293,262,"Individual championing",81,"Self-advocacy",true,"Navigating difficulties",25,"Coping skills",true,"Navigating difficulties",25,"Coping skills",true,"Individual championing",81,"Self-advocacy",true,1448,,,,,,,,,
66472a03650f9441b8f815d9,forced_choice,294,262,"Setting and striving for goals",45,"Setting and striving for goals",false,"Finding solutions in one's surroundings",27,"Resourcefulness",true,"Setting and striving for goals",45,"Setting and striving for goals",false,"Finding solutions in one's surroundings",27,"Resourcefulness",true,4932,,,,,,,,,
66472a03650f9441b8f815d9,forced_choice,295,262,"Class participation",89,"Class participation",false,"Finding solutions in one's surroundings",27,"Resourcefulness",true,"Class participation",89,"Class participation",false,"Finding solutions in one's surroundings",27,"Resourcefulness",true,1812,,,,,,,,,
66472a03650f9441b8f815d9,forced_choice,296,262,"Class participation",89,"Class participation",false,"Social awareness",16,"Social awareness",false,"Class participation",89,"Class participation",false,"Social awareness",16,"Social awareness",false,1381,,,,,,,,,
66472a03650f9441b8f815d9,forced_choice,297,262,"Justice",60,"Fairness",true,"Exhaustion",85,"Sleep and fatigue",true,"Exhaustion",85,"Sleep and fatigue",true,"Justice",60,"Fairness",true,1552,,,,,,,,,
66472a03650f9441b8f815d9,forced_choice,298,262,"Rate of thought processing",48,"Thinking speed",true,"Social cooperation",12,"Social cooperation",false,"Rate of thought processing",48,"Thinking speed",true,"Social cooperation",12,"Social cooperation",false,1365,,,,,,,,,
66472a03650f9441b8f815d9,forced_choice,299,262,"Attention",40,"Attention",false,"Ability to wait",62,"Patience",true,"Ability to wait",62,"Patience",true,"Attention",40,"Attention",false,1482,,,,,,,,,
66472a03650f9441b8f815d9,forced_choice,300,262,"Social communication",14,"Social communication",false,"Asking questions",4,"Asking questions",false,"Asking questions",4,"Asking questions",false,"Social communication",14,"Social communication",false,1962,,,,,,,,,
66472a03650f9441b8f815d9,forced_choice,301,262,"Inner understanding",76,"Self-awareness",true,"Ingenuity",50,"Creativity and imagination",true,"Ingenuity",50,"Creativity and imagination",true,"Inner understanding",76,"Self-awareness",true,1618,,,,,,,,,
66472a03650f9441b8f815d9,forced_choice,302,262,"Task initiation",46,"Task initiation",false,"Ingenuity",50,"Creativity and imagination",true,"Ingenuity",50,"Creativity and imagination",true,"Task initiation",46,"Task initiation",false,1813,,,,,,,,,
66472a03650f9441b8f815d9,forced_choice,303,262,"Navigating difficulties",25,"Coping skills",true,"Justice",60,"Fairness",true,"Navigating difficulties",25,"Coping skills",true,"Justice",60,"Fairness",true,1969,,,,,,,,,
66472a03650f9441b8f815d9,forced_choice,304,262,"Memory",41,"Memory",false,"Justice",60,"Fairness",true,"Memory",41,"Memory",false,"Justice",60,"Fairness",true,1344,,,,,,,,,
66472a03650f9441b8f815d9,forced_choice,305,262,"Class participation",89,"Class participation",false,"Social cooperation",12,"Social cooperation",false,"Class participation",89,"Class participation",false,"Social cooperation",12,"Social cooperation",false,1332,,,,,,,,,
66472a03650f9441b8f815d9,forced_choice,306,262,"Ingenuity",50,"Creativity and imagination",true,"Social cooperation",12,"Social cooperation",false,"Ingenuity",50,"Creativity and imagination",true,"Social cooperation",12,"Social cooperation",false,8097,,,,,,,,,
66472a03650f9441b8f815d9,forced_choice,307,262,"Mood perception",31,"Emotional awareness",true,"Inner understanding",76,"Self-awareness",true,"Mood perception",31,"Emotional awareness",true,"Inner understanding",76,"Self-awareness",true,3412,,,,,,,,,
66472a03650f9441b8f815d9,forced_choice,308,262,"Social validation",20,"Social belonging",true,"Class participation",89,"Class participation",false,"Class participation",89,"Class participation",false,"Social validation",20,"Social belonging",true,2304,,,,,,,,,
66472a03650f9441b8f815d9,forced_choice,309,262,"Social communication",14,"Social communication",false,"Individual championing",81,"Self-advocacy",true,"Social communication",14,"Social communication",false,"Individual championing",81,"Self-advocacy",true,1580,,,,,,,,,
66472a03650f9441b8f815d9,forced_choice,310,262,"Rate of thought processing",48,"Thinking speed",true,"Class participation",89,"Class participation",false,"Rate of thought processing",48,"Thinking speed",true,"Class participation",89,"Class participation",false,1595,,,,,,,,,
66472a03650f9441b8f815d9,forced_choice,311,262,"Social awareness",16,"Social awareness",false,"Accepting diversity",59,"Respect for others",true,"Social awareness",16,"Social awareness",false,"Accepting diversity",59,"Respect for others",true,1682,,,,,,,,,
66472a03650f9441b8f815d9,forced_choice,312,262,"Rate of thought processing",48,"Thinking speed",true,"Social communication",14,"Social communication",false,"Rate of thought processing",48,"Thinking speed",true,"Social communication",14,"Social communication",false,2764,,,,,,,,,
66472a03650f9441b8f815d9,forced_choice,313,262,"Navigating difficulties",25,"Coping skills",true,"Task initiation",46,"Task initiation",false,"Task initiation",46,"Task initiation",false,"Navigating difficulties",25,"Coping skills",true,5219,,,,,,,,,
66472a03650f9441b8f815d9,forced_choice,314,262,"Justice",60,"Fairness",true,"Seeking help",3,"Seeking help",false,"Seeking help",3,"Seeking help",false,"Justice",60,"Fairness",true,1364,,,,,,,,,
66472a03650f9441b8f815d9,forced_choice,315,262,"Psychological toughness",28,"Resilience",true,"Social awareness",16,"Social awareness",false,"Psychological toughness",28,"Resilience",true,"Social awareness",16,"Social awareness",false,2849,,,,,,,,,
66472a03650f9441b8f815d9,forced_choice,316,262,"Personal security",21,"Sense of safety",true,"Navigating difficulties",25,"Coping skills",true,"Navigating difficulties",25,"Coping skills",true,"Personal security",21,"Sense of safety",true,3380,,,,,,,,,
66472a03650f9441b8f815d9,forced_choice,317,262,"Attention",40,"Attention",false,"Interpersonal participation",15,"Social activity",true,"Attention",40,"Attention",false,"Interpersonal participation",15,"Social activity",true,2267,,,,,,,,,
66472a03650f9441b8f815d9,forced_choice,318,262,"Social awareness",16,"Social awareness",false,"Social cooperation",12,"Social cooperation",false,"Social cooperation",12,"Social cooperation",false,"Social awareness",16,"Social awareness",false,2648,,,,,,,,,
66472a03650f9441b8f815d9,forced_choice,319,262,"Finding solutions in one's surroundings",27,"Resourcefulness",true,"Symbolic processing",49,"Abstract thinking",true,"Finding solutions in one's surroundings",27,"Resourcefulness",true,"Symbolic processing",49,"Abstract thinking",true,2536,,,,,,,,,
66472a03650f9441b8f815d9,forced_choice,320,262,"Finding solutions in one's surroundings",27,"Resourcefulness",true,"Ingenuity",50,"Creativity and imagination",true,"Ingenuity",50,"Creativity and imagination",true,"Finding solutions in one's surroundings",27,"Resourcefulness",true,2297,,,,,,,,,
66472a03650f9441b8f815d9,forced_choice,321,262,"Memory",41,"Memory",false,"Navigating difficulties",25,"Coping skills",true,"Navigating difficulties",25,"Coping skills",true,"Memory",41,"Memory",false,1930,,,,,,,,,
66472a03650f9441b8f815d9,forced_choice,322,262,"Social awareness",16,"Social awareness",false,"Individual championing",81,"Self-advocacy",true,"Social awareness",16,"Social awareness",false,"Individual championing",81,"Self-advocacy",true,2781,,,,,,,,,
66472a03650f9441b8f815d9,forced_choice,323,262,"Exhaustion",85,"Sleep and fatigue",true,"Rate of thought processing",48,"Thinking speed",true,"Rate of thought processing",48,"Thinking speed",true,"Exhaustion",85,"Sleep and fatigue",true,1779,,,,,,,,,
66472a03650f9441b8f815d9,forced_choice,324,262,"Asking questions",4,"Asking questions",false,"Setting and striving for goals",45,"Setting and striving for goals",false,"Setting and striving for goals",45,"Setting and striving for goals",false,"Asking questions",4,"Asking questions",false,2398,,,,,,,,,
