user_id,task,trial_index,subset_index,left_term,left_construct_id,left_canonical,left_is_synonym,right_term,right_construct_id,right_canonical,right_is_synonym,chosen_term,chosen_construct_id,chosen_canonical,chosen_is_synonym,unchosen_term,unchosen_construct_id,unchosen_canonical,unchosen_is_synonym,response_time,correct_word,chosen_word,passed,grade_levels,special_needs,school_type,experience,class_size,country
5df77306c12a36506b5e95f4,demographics,,,,,,,,,,,,,,,,,,,,,,,"middle|high_school","yes","private",">10","<15","Spain"
5df77306c12a36506b5e95f4,forced_choice,0,348,"Family bonds",10,"Relationships with parents",true,"Reaction to group influence",22,"Response to peer pressure",true,"Reaction to group influence",22,"Response to peer pressure",true,"Family bonds",10,"Relationships with parents",true,6019,,,,,,,,,
5df77306c12a36506b5e95f4,forced_choice,1,348,"Fairness",60,"Fairness",false,"Confidence in groups",13,"Comfort in social situations",true,"Confidence in groups",13,"Comfort in social situations",true,"Fairness",60,"Fairness",false,4790,,,,,,,,,
5df77306c12a36506b5e95f4,forced_choice,2,348,"Reaction to group influence",22,"Response to peer pressure",true,"Drive or ambition",54,"Motivation",true,"Drive or ambition",54,"Motivation",true,"Reaction to group influence",22,"Response to peer pressure",true,6050,,,,,,,,,
5df77306c12a36506b5e95f4,forced_choice,3,348,"Habits / routines",6,"Habits / routines",false,"Scholastic achievement",88,"Academic performance",true,"Habits / routines",6,"Habits / routines",false,"Scholastic achievement",88,"Academic performance",true,3612,,,,,,,,,
5df77306c12a36506b5e95f4,forced_choice,4,348,"Cognitive control",34,"Managing thoughts",true,"Fairness",60,"Fairness",false,"Cognitive control",34,"Managing thoughts",true,"Fairness",60,"Fairness",false,1951,,,,,,,,,
5df77306c12a36506b5e95f4,forced_choice,5,348,"Self-awareness",76,"Self-awareness",false,"Reaction to group influence",22,"Response to peer pressure",true,"Self-awareness",76,"Self-awareness",false,"Reaction to group influence",22,"Response to peer pressure",true,2707,,,,,,,,,
5df77306c12a36506b5e95f4,forced_choice,6,348,"Cognitive control",34,"Managing thoughts",true,"Resourcefulness",27,"Resourcefulness",false,"Cognitive control",34,"Managing thoughts",true,"Resourcefulness",27,"Resourcefulness",false,4792,,,,,,,,,
5df77306c12a36506b5e95f4,forced_choice,7,348,"Creativity and imagination",50,"Creativity and imagination",false,"Sense of duty",66,"Responsibility",true,"Creativity and imagination",50,"Creativity and imagination",false,"Sense of duty",66,"Responsibility",true,2545,,,,,,,,,
5df77306c12a36506b5e95f4,forced_choice,8,348,"Creativity and imagination",50,"Creativity and imagination",false,"Confidence in groups",13,"Comfort in social situations",true,"Confidence in groups",13,"Comfort in social situations",true,"Creativity and imagination",50,"Creativity and imagination",false,2847,,,,,,,,,
5df77306c12a36506b5e95f4,forced_choice,9,348,"Proactive",69,"Initiative",true,"Schedule planning",44,"Time management",true,"Proactive",69,"Initiative",true,"Schedule planning",44,"Time management",true,4862,,,,,,,,,
5df77306c12a36506b5e95f4,forced_choice,10,348,"Concentration",40,"Attention",true,"Situational awareness",7,"Perception",true,"Situational awareness",7,"Perception",true,"Concentration",40,"Attention",true,3341,,,,,,,,,
5df77306c12a36506b5e95f4,forced_choice,11,348,"Scholastic achievement",88,"Academic performance",true,"Prospective view",72,"Future outlook",true,"Prospective view",72,"Future outlook",true,"Scholastic achievement",88,"Academic performance",true,3764,,,,,,,,,
5df77306c12a36506b5e95f4,forced_choice,12,348,"Proactive",69,"Initiative",true,"Fairness",60,"Fairness",false,"Proactive",69,"Initiative",true,"Fairness",60,"Fairness",false,2123,,,,,,,,,
5df77306c12a36506b5e95f4,forced_choice,13,348,"Prospective view",72,"Future outlook",true,"Fairness",60,"Fairness",false,"Prospective view",72,"Future outlook",true,"Fairness",60,"Fairness",false,2205,,,,,,,,,
5df77306c12a36506b5e95f4,forced_choice,14,348,"Working for outcomes",45,"Setting and striving for goals",true,"Overcoming obstacles",37,"Problem solving",true,"Overcoming obstacles",37,"Problem solving",true,"Working for outcomes",45,"Setting and striving for goals",true,2533,,,,,,,,,
5df77306c12a36506b5e95f4,forced_choice,15,348,"Proficiencies",51,"Knowledge and skills",true,"Confidence in groups",13,"Comfort in social situations",true,"Confidence in groups",13,"Comfort in social situations",true,"Proficiencies",51,"Knowledge and skills",true,1509,,,,,,,,,
5df77306c12a36506b5e95f4,forced_choice,16,348,"Habits / routines",6,"Habits / routines",false,"Self-awareness",76,"Self-awareness",false,"Self-awareness",76,"Self-awareness",false,"Habits / routines",6,"Habits / routines",false,2194,,,,,,,,,
5df77306c12a36506b5e95f4,forced_choice,17,348,"Inbound communication",2,"Receptive communication",true,"Confidence in groups",13,"Comfort in social situations",true,"Confidence in groups",13,"Comfort in social situations",true,"Inbound communication",2,"Receptive communication",true,3351,,,,,,,,,
5df77306c12a36506b5e95f4,forced_choice,18,348,"Confidence in groups",13,"Comfort in social situations",true,"Self-reliance",68,"Independence",true,"Confidence in groups",13,"Comfort in social situations",true,"Self-reliance",68,"Independence",true,4065,,,,,,,,,
5df77306c12a36506b5e95f4,forced_choice,19,348,"Cultural sensitivity",59,"Respect for others",true,"Family bonds",10,"Relationships with parents",true,"Family bonds",10,"Relationships with parents",true,"Cultural sensitivity",59,"Respect for others",true,3793,,,,,,,,,
5df77306c12a36506b5e95f4,forced_choice,20,348,"Cognitive control",34,"Managing thoughts",true,"Prospective view",72,"Future outlook",true,"Cognitive control",34,"Managing thoughts",true,"Prospective view",72,"Future outlook",true,2948,,,,,,,,,
5df77306c12a36506b5e95f4,forced_choice,21,348,"Creativity and imagination",50,"Creativity and imagination",false,"Proficiencies",51,"Knowledge and skills",true,"Proficiencies",51,"Knowledge and skills",true,"Creativity and imagination",50,"Creativity and imagination",false,2756,,,,,,,,,
5df77306c12a36506b5e95f4,forced_choice,22,348,"Cognitive control",34,"Managing thoughts",true,"Inbound communication",2,"Receptive communication",true,"Cognitive control",34,"Managing thoughts",true,"Inbound communication",2,"Receptive communication",true,3481,,,,,,,,,
5df77306c12a36506b5e95f4,forced_choice,23,348,"Psychological balance",84,"Emotional well-being",true,"Self-awareness",76,"Self-awareness",false,"Self-awareness",76,"Self-awareness",false,"Psychological balance",84,"Emotional well-being",true,2133,,,,,,,,,
5df77306c12a36506b5e95f4,forced_choice,24,348,"Confidence in groups",13,"Comfort in social situations",true,"Resourcefulness",27,"Resourcefulness",false,"Resourcefulness",27,"Resourcefulness",false,"Confidence in groups",13,"Comfort in social situations",true,2475,,,,,,,,,
5df77306c12a36506b5e95f4,forced_choice,25,348,"Schedule planning",44,"Time management",true,"Self-awareness",76,"Self-awareness",false,"Self-awareness",76,"Self-awareness",false,"Schedule planning",44,"Time management",true,1911,,,,,,,,,
5df77306c12a36506b5e95f4,forced_choice,26,348,"Reaction to group influence",22,"Response to peer pressure",true,"Proficiencies",51,"Knowledge and skills",true,"Reaction to group influence",22,"Response to peer pressure",true,"Proficiencies",51,"Knowledge and skills",true,2798,,,,,,,,,
5df77306c12a36506b5e95f4,forced_choice,27,348,"Creativity and imagination",50,"Creativity and imagination",false,"Self-reliance",68,"Independence",true,"Creativity and imagination",50,"Creativity and imagination",false,"Self-reliance",68,"Independence",true,4821,,,,,,,,,
5df77306c12a36506b5e95f4,forced_choice,28,348,"Regulating feelings",29,"Managing emotions",true,"Resourcefulness",27,"Resourcefulness",false,"Regulating feelings",29,"Managing emotions",true,"Resourcefulness",27,"Resourcefulness",false,1801,,,,,,,,,
5df77306c12a36506b5e95f4,forced_choice,29,348,"Psychological balance",84,"Emotional well-being",true,"Regulating feelings",29,"Managing emotions",true,"Psychological balance",84,"Emotional well-being",true,"Regulating feelings",29,"Managing emotions",true,2164,,,,,,,,,
5df77306c12a36506b5e95f4,forced_choice,30,348,"Family bonds",10,"Relationships with parents",true,"Sense of duty",66,"Responsibility",true,"Family bonds",10,"Relationships with parents",true,"Sense of duty",66,"Responsibility",true,2264,,,,,,,,,
5df77306c12a36506b5e95f4,forced_choice,31,348,"Working for outcomes",45,"Setting and striving for goals",true,"Drive or ambition",54,"Motivation",true,"Working for outcomes",45,"Setting and striving for goals",true,"Drive or ambition",54,"Motivation",true,2173,,,,,,,,,
5df77306c12a36506b5e95f4,forced_choice,32,348,"Schedule planning",44,"Time management",true,"Self-reliance",68,"Independence",true,"Schedule planning",44,"Time management",true,"Self-reliance",68,"Independence",true,2456,,,,,,,,,
5df77306c12a36506b5e95f4,forced_choice,33,348,"Sense of safety",21,"Sense of safety",false,"Resourcefulness",27,"Resourcefulness",false,"Resourcefulness",27,"Resourcefulness",false,"Sense of safety",21,"Sense of safety",false,2294,,,,,,,,,
5df77306c12a36506b5e95f4,forced_choice,34,348,"Working for outcomes",45,"Setting and striving for goals",true,"Fairness",60,"Fairness",false,"Working for outcomes",45,"Setting and striving for goals",true,"Fairness",60,"Fairness",false,1952,,,,,,,,,
5df77306c12a36506b5e95f4,forced_choice,35,348,"Self-awareness",76,"Self-awareness",false,"Regulating feelings",29,"Managing emotions",true,"Self-awareness",76,"Self-awareness",false,"Regulating feelings",29,"Managing emotions",true,2536,,,,,,,,,
5df77306c12a36506b5e95f4,forced_choice,36,348,"Habits / routines",6,"Habits / routines",false,"Regulating feelings",29,"Managing emotions",true,"Habits / routines",6,"Habits / routines",false,"Regulating feelings",29,"Managing emotions",true,1388,,,,,,,,,
5df77306c12a36506b5e95f4,forced_choice,37,348,"Cognitive control",34,"Managing thoughts",true,"Family bonds",10,"Relationships with parents",true,"Cognitive control",34,"Managing thoughts",true,"Family bonds",10,"Relationships with parents",true,1195,,,,,,,,,
5df77306c12a36506b5e95f4,forced_choice,38,348,"Working for outcomes",45,"Setting and striving for goals",true,"Cultural sensitivity",59,"Respect for others",true,"Working for outcomes",45,"Setting and striving for goals",true,"Cultural sensitivity",59,"Respect for others",true,1227,,,,,,,,,
5df77306c12a36506b5e95f4,forced_choice,39,348,"Resourcefulness",27,"Resourcefulness",false,"Fairness",60,"Fairness",false,"Resourcefulness",27,"Resourcefulness",false,"Fairness",60,"Fairness",false,985,,,,,,,,,
5df77306c12a36506b5e95f4,forced_choice,40,348,"Scholastic achievement",88,"Academic performance",true,"Cognitive control",34,"Managing thoughts",true,"Cognitive control",34,"Managing thoughts",true,"Scholastic achievement",88,"Academic performance",true,3744,,,,,,,,,
5df77306c12a36506b5e95f4,forced_choice,41,348,"Psychological balance",84,"Emotional well-being",true,"Situational awareness",7,"Perception",true,"Situational awareness",7,"Perception",true,"Psychological balance",84,"Emotional well-being",true,1731,,,,,,,,,
5df77306c12a36506b5e95f4,forced_choice,42,348,"Cognitive control",34,"Managing thoughts",true,"Cultural sensitivity",59,"Respect for others",true,"Cognitive control",34,"Managing thoughts",true,"Cultural sensitivity",59,"Respect for others",true,1760,,,,,,,,,
5df77306c12a36506b5e95f4,forced_choice,43,348,"Concentration",40,"Attention",true,"Self-awareness",76,"Self-awareness",false,"Concentration",40,"Attention",true,"Self-awareness",76,"Self-awareness",false,1952,,,,,,,,,
5df77306c12a36506b5e95f4,forced_choice,44,348,"Self-awareness",76,"Self-awareness",false,"Creativity and imagination",50,"Creativity and imagination",false,"Self-awareness",76,"Self-awareness",false,"Creativity and imagination",50,"Creativity and imagination",false,985,,,,,,,,,
5df77306c12a36506b5e95f4,forced_choice,45,348,"Self-awareness",76,"Self-awareness",false,"Family bonds",10,"Relationships with parents",true,"Self-awareness",76,"Self-awareness",false,"Family bonds",10,"Relationships with parents",true,1620,,,,,,,,,
5df77306c12a36506b5e95f4,forced_choice,46,348,"Resourcefulness",27,"Resourcefulness",false,"Sense of duty",66,"Responsibility",true,"Resourcefulness",27,"Resourcefulness",false,"Sense of duty",66,"Responsibility",true,2053,,,,,,,,,
5df77306c12a36506b5e95f4,forced_choice,47,348,"Cultural sensitivity",59,"Respect for others",true,"Proficiencies",51,"Knowledge and skills",true,"Proficiencies",51,"Knowledge and skills",true,"Cultural sensitivity",59,"Respect for others",true,1459,,,,,,,,,
5df77306c12a36506b5e95f4,forced_choice,48,348,"Psychological balance",84,"Emotional well-being",true,"Reaction to group influence",22,"Response to peer pressure",true,"Reaction to group influence",22,"Response to peer pressure",true,"Psychological balance",84,"Emotional well-being",true,1448,,,,,,,,,
5df77306c12a36506b5e95f4,forced_choice,49,348,"Proactive",69,"Initiative",true,"Sense of duty",66,"Responsibility",true,"Proactive",69,"Initiative",true,"Sense of duty",66,"Responsibility",true,3160,,,,,,,,,
5df77306c12a36506b5e95f4,forced_choice,50,348,"Working for outcomes",45,"Setting and striving for goals",true,"Habits / routines",6,"Habits / routines",false,"Habits / routines",6,"Habits / routines",false,"Working for outcomes",45,"Setting and striving for goals",true,1851,,,,,,,,,
5df77306c12a36506b5e95f4,forced_choice,51,348,"Overcoming obstacles",37,"Problem solving",true,"Concentration",40,"Attention",true,"Overcoming obstacles",37,"Problem solving",true,"Concentration",40,"Attention",true,3301,,,,,,,,,
5df77306c12a36506b5e95f4,forced_choice,52,348,"Resourcefulness",27,"Resourcefulness",false,"Proficiencies",51,"Knowledge and skills",true,"Proficiencies",51,"Knowledge and skills",true,"Resourcefulness",27,"Resourcefulness",false,2163,,,,,,,,,
5df77306c12a36506b5e95f4,forced_choice,53,348,"Cognitive control",34,"Managing thoughts",true,"Confidence in groups",13,"Comfort in social situations",true,"Confidence in groups",13,"Comfort in social situations",true,"Cognitive control",34,"Managing thoughts",true,1972,,,,,,,,,
5df77306c12a36506b5e95f4,forced_choice,54,348,"Self-reliance",68,"Independence",true,"Self-awareness",76,"Self-awareness",false,"Self-awareness",76,"Self-awareness",false,"Self-reliance",68,"Independence",true,5084,,,,,,,,,
5df77306c12a36506b5e95f4,attention_check,55,,,,,,,,,,,,,,,,,,2535,"Playing with others","Playing with others",true,,,,,,
5df77306c12a36506b5e95f4,forced_choice,55,348,"Inbound communication",2,"Receptive communication",true,"Psychological balance",84,"Emotional well-being",true,"Inbound communication",2,"Receptive communication",true,"Psychological balance",84,"Emotional well-being",true,4066,,,,,,,,,
5df77306c12a36506b5e95f4,forced_choice,56,348,"Inbound communication",2,"Receptive communication",true,"Sense of safety",21,"Sense of safety",false,"Inbound communication",2,"Receptive communication",true,"Sense of safety",21,"Sense of safety",false,1801,,,,,,,,,
5df77306c12a36506b5e95f4,forced_choice,57,348,"Fairness",60,"Fairness",false,"Inbound communication",2,"Receptive communication",true,"Inbound communication",2,"Receptive communication",true,"Fairness",60,"Fairness",false,2738,,,,,,,,,
5df77306c12a36506b5e95f4,forced_choice,58,348,"Self-reliance",68,"Independence",true,"Scholastic achievement",88,"Academic performance",true,"Scholastic achievement",88,"Academic performance",true,"Self-reliance",68,"Independence",true,2103,,,,,,,,,
5df77306c12a36506b5e95f4,forced_choice,59,348,"Confidence in groups",13,"Comfort in social situations",true,"Family bonds",10,"Relationships with parents",true,"Confidence in groups",13,"Comfort in social situations",true,"Family bonds",10,"Relationships with parents",true,1691,,,,,,,,,
5df77306c12a36506b5e95f4,forced_choice,60,348,"Proactive",69,"Initiative",true,"Regulating feelings",29,"Managing emotions",true,"Proactive",69,"Initiative",true,"Regulating feelings",29,"Managing emotions",true,1258,,,,,,,,,
5df77306c12a36506b5e95f4,forced_choice,61,348,"Habits / routines",6,"Habits / routines",false,"Resourcefulness",27,"Resourcefulness",false,"Habits / routines",6,"Habits / routines",false,"Resourcefulness",27,"Resourcefulness",false,1156,,,,,,,,,
5df77306c12a36506b5e95f4,forced_choice,62,348,"Prospective view",72,"Future outlook",true,"Sense of safety",21,"Sense of safety",false,"Prospective view",72,"Future outlook",true,"Sense of safety",21,"Sense of safety",false,1459,,,,,,,,,
5df77306c12a36506b5e95f4,forced_choice,63,348,"Schedule planning",44,"Time management",true,"Scholastic achievement",88,"Academic performance",true,"Scholastic achievement",88,"Academic performance",true,"Schedule planning",44,"Time management",true,2083,,,,,,,,,
5df77306c12a36506b5e95f4,forced_choice,64,348,"Self-awareness",76,"Self-awareness",false,"Cultural sensitivity",59,"Respect for others",true,"Self-awareness",76,"Self-awareness",false,"Cultural sensitivity",59,"Respect for others",true,1510,,,,,,,,,
5df77306c12a36506b5e95f4,forced_choice,65,348,"Working for outcomes",45,"Setting and striving for goals",true,"Scholastic achievement",88,"Academic performance",true,"Working for outcomes",45,"Setting and striving for goals",true,"Scholastic achievement",88,"Academic performance",true,2143,,,,,,,,,
5df77306c12a36506b5e95f4,forced_choice,66,348,"Drive or ambition",54,"Motivation",true,"Situational awareness",7,"Perception",true,"Situational awareness",7,"Perception",true,"Drive or ambition",54,"Motivation",true,1499,,,,,,,,,
5df77306c12a36506b5e95f4,forced_choice,67,348,"Resourcefulness",27,"Resourcefulness",false,"Proactive",69,"Initiative",true,"Proactive",69,"Initiative",true,"Resourcefulness",27,"Resourcefulness",false,1469,,,,,,,,,
5df77306c12a36506b5e95f4,forced_choice,68,348,"Proficiencies",51,"Knowledge and skills",true,"Sense of duty",66,"Responsibility",true,"Proficiencies",51,"Knowledge and skills",true,"Sense of duty",66,"Responsibility",true,1932,,,,,,,,,
5df77306c12a36506b5e95f4,forced_choice,69,348,"Situational awareness",7,"Perception",true,"Creativity and imagination",50,"Creativity and imagination",false,"Creativity and imagination",50,"Creativity and imagination",false,"Situational awareness",7,"Perception",true,2315,,,,,,,,,
5df77306c12a36506b5e95f4,forced_choice,70,348,"Sense of duty",66,"Responsibility",true,"Confidence in groups",13,"Comfort in social situations",true,"Confidence in groups",13,"Comfort in social situations",true,"Sense of duty",66,"Responsibility",true,2456,,,,,,,,,
5df77306c12a36506b5e95f4,forced_choice,71,348,"Inbound communication",2,"Receptive communication",true,"Habits / routines",6,"Habits / routines",false,"Inbound communication",2,"Receptive communication",true,"Habits / routines",6,"Habits / routines",false,1670,,,,,,,,,
5df77306c12a36506b5e95f4,forced_choice,72,348,"Scholastic achievement",88,"Academic performance",true,"Regulating feelings",29,"Managing emotions",true,"Scholastic achievement",88,"Academic performance",true,"Regulating feelings",29,"Managing emotions",true,2355,,,,,,,,,
5df77306c12a36506b5e95f4,forced_choice,73,348,"Prospective view",72,"Future outlook",true,"Proficiencies",51,"Knowledge and skills",true,"Proficiencies",51,"Knowledge and skills",true,"Prospective view",72,"Future outlook",true,1650,,,,,,,,,
5df77306c12a36506b5e95f4,forced_choice,74,348,"Overcoming obstacles",37,"Problem solving",true,"Family bonds",10,"Relationships with parents",true,"Overcoming obstacles",37,"Problem solving",true,"Family bonds",10,"Relationships with parents",true,1459,,,,,,,,,
5df77306c12a36506b5e95f4,forced_choice,75,348,"Habits / routines",6,"Habits / routines",false,"Creativity and imagination",50,"Creativity and imagination",false,"Habits / routines",6,"Habits / routines",false,"Creativity and imagination",50,"Creativity and imagination",false,1408,,,,,,,,,
5df77306c12a36506b5e95f4,forced_choice,76,348,"Cultural sensitivity",59,"Respect for others",true,"Sense of safety",21,"Sense of safety",false,"Cultural sensitivity",59,"Respect for others",true,"Sense of safety",21,"Sense of safety",false,1742,,,,,,,,,
5df77306c12a36506b5e95f4,forced_choice,77,348,"Sense of duty",66,"Responsibility",true,"Psychological balance",84,"Emotional well-being",true,"Psychological balance",84,"Emotional well-being",true,"Sense of duty",66,"Responsibility",true,2426,,,,,,,,,
5df77306c12a36506b5e95f4,forced_choice,78,348,"Habits / routines",6,"Habits / routines",false,"Cultural sensitivity",59,"Respect for others",true,"Habits / routines",6,"Habits / routines",false,"Cultural sensitivity",59,"Respect for others",true,1650,,,,,,,,,
5df77306c12a36506b5e95f4,forced_choice,79,348,"Fairness",60,"Fairness",false,"Scholastic achievement",88,"Academic performance",true,"Scholastic achievement",88,"Academic performance",true,"Fairness",60,"Fairness",false,3202,,,,,,,,,
5df77306c12a36506b5e95f4,forced_choice,80,348,"Self-awareness",76,"Self-awareness",false,"Scholastic achievement",88,"Academic performance",true,"Scholastic achievement",88,"Academic performance",true,"Self-awareness",76,"Self-awareness",false,1307,,,,,,,,,
5df77306c12a36506b5e95f4,forced_choice,81,348,"Schedule planning",44,"Time management",true,"Cultural sensitivity",59,"Respect for others",true,"Schedule planning",44,"Time management",true,"Cultural sensitivity",59,"Respect for others",true,2386,,,,,,,,,
5df77306c12a36506b5e95f4,forced_choice,82,348,"Reaction to group influence",22,"Response to peer pressure",true,"Situational awareness",7,"Perception",true,"Reaction to group influence",22,"Response to peer pressure",true,"Situational awareness",7,"Perception",true,1288,,,,,,,,,
5df77306c12a36506b5e95f4,forced_choice,83,348,"Proficiencies",51,"Knowledge and skills",true,"Schedule planning",44,"Time management",true,"Proficiencies",51,"Knowledge and skills",true,"Schedule planning",44,"Time management",true,1902,,,,,,,,,
5df77306c12a36506b5e95f4,forced_choice,84,348,"Proficiencies",51,"Knowledge and skills",true,"Drive or ambition",54,"Motivation",true,"Proficiencies",51,"Knowledge and skills",true,"Drive or ambition",54,"Motivation",true,1086,,,,,,,,,
5df77306c12a36506b5e95f4,forced_choice,85,348,"Inbound communication",2,"Receptive communication",true,"Proactive",69,"Initiative",true,"Proactive",69,"Initiative",true,"Inbound communication",2,"Receptive communication",true,1882,,,,,,,,,
5df77306c12a36506b5e95f4,forced_choice,86,348,"Inbound communication",2,"Receptive communication",true,"Regulating feelings",29,"Managing emotions",true,"Regulating feelings",29,"Managing emotions",true,"Inbound communication",2,"Receptive communication",true,2940,,,,,,,,,
5df77306c12a36506b5e95f4,forced_choice,87,348,"Psychological balance",84,"Emotional well-being",true,"Working for outcomes",45,"Setting and striving for goals",true,"Psychological balance",84,"Emotional well-being",true,"Working for outcomes",45,"Setting and striving for goals",true,1580,,,,,,,,,
5df77306c12a36506b5e95f4,forced_choice,88,348,"Schedule planning",44,"Time management",true,"Family bonds",10,"Relationships with parents",true,"Schedule planning",44,"Time management",true,"Family bonds",10,"Relationships with parents",true,2456,,,,,,,,,
5df77306c12a36506b5e95f4,forced_choice,89,348,"Creativity and imagination",50,"Creativity and imagination",false,"Schedule planning",44,"Time management",true,"Creativity and imagination",50,"Creativity and imagination",false,"Schedule planning",44,"Time management",true,2366,,,,,,,,,
5df77306c12a36506b5e95f4,forced_choice,90,348,"Overcoming obstacles",37,"Problem solving",true,"Scholastic achievement",88,"Academic performance",true,"Overcoming obstacles",37,"Problem solving",true,"Scholastic achievement",88,"Academic performance",true,804,,,,,,,,,
5df77306c12a36506b5e95f4,forced_choice,91,348,"Reaction to group influence",22,"Response to peer pressure",true,"Cognitive control",34,"Managing thoughts",true,"Reaction to group influence",22,"Response to peer pressure",true,"Cognitive control",34,"Managing thoughts",true,1792,,,,,,,,,
5df77306c12a36506b5e95f4,forced_choice,92,348,"Situational awareness",7,"Perception",true,"Inbound communication",2,"Receptive communication",true,"Situational awareness",7,"Perception",true,"Inbound communication",2,"Receptive communication",true,1500,,,,,,,,,
5df77306c12a36506b5e95f4,forced_choice,93,348,"Reaction to group influence",22,"Response to peer pressure",true,"Inbound communication",2,"Receptive communication",true,"Reaction to group influence",22,"Response to peer pressure",true,"Inbound communication",2,"Receptive communication",true,1269,,,,,,,,,
5df77306c12a36506b5e95f4,forced_choice,94,348,"Habits / routines",6,"Habits / routines",false,"Sense of safety",21,"Sense of safety",false,"Habits / routines",6,"Habits / routines",false,"Sense of safety",21,"Sense of safety",false,1056,,,,,,,,,
5df77306c12a36506b5e95f4,forced_choice,95,348,"Scholastic achievement",88,"Academic performance",true,"Reaction to group influence",22,"Response to peer pressure",true,"Scholastic achievement",88,"Academic performance",true,"Reaction to group influence",22,"Response to peer pressure",true,1378,,,,,,,,,
5df77306c12a36506b5e95f4,forced_choice,96,348,"Psychological balance",84,"Emotional well-being",true,"Habits / routines",6,"Habits / routines",false,"Habits / routines",6,"Habits / routines",false,"Psychological balance",84,"Emotional well-being",true,1802,,,,,,,,,
5df77306c12a36506b5e95f4,forced_choice,97,348,"Confidence in groups",13,"Comfort in social situations",true,"Reaction to group influence",22,"Response to peer pressure",true,"Confidence in groups",13,"Comfort in social situations",true,"Reaction to group influence",22,"Response to peer pressure",true,1902,,,,,,,,,
5df77306c12a36506b5e95f4,forced_choice,98,348,"Concentration",40,"Attention",true,"Fairness",60,"Fairness",false,"Concentration",40,"Attention",true,"Fairness",60,"Fairness",false,844,,,,,,,,,
5df77306c12a36506b5e95f4,forced_choice,99,348,"Self-reliance",68,"Independence",true,"Overcoming obstacles",37,"Problem solving",true,"Overcoming obstacles",37,"Problem solving",true,"Self-reliance",68,"Independence",true,1852,,,,,,,,,
5df77306c12a36506b5e95f4,forced_choice,100,348,"Regulating feelings",29,"Managing emotions",true,"Concentration",40,"Attention",true,"Concentration",40,"Attention",true,"Regulating feelings",29,"Managing emotions",true,2154,,,,,,,,,
5df77306c12a36506b5e95f4,forced_choice,101,348,"Fairness",60,"Fairness",false,"Situational awareness",7,"Perception",true,"Situational awareness",7,"Perception",true,"Fairness",60,"Fairness",false,1379,,,,,,,,,
5df77306c12a36506b5e95f4,forced_choice,102,348,"Self-reliance",68,"Independence",true,"Inbound communication",2,"Receptive communication",true,"Self-reliance",68,"Independence",true,"Inbound communication",2,"Receptive communication",true,1478,,,,,,,,,
5df77306c12a36506b5e95f4,forced_choice,103,348,"Self-reliance",68,"Independence",true,"Fairness",60,"Fairness",false,"Self-reliance",68,"Independence",true,"Fairness",60,"Fairness",false,1217,,,,,,,,,
5df77306c12a36506b5e95f4,forced_choice,104,348,"Working for outcomes",45,"Setting and striving for goals",true,"Creativity and imagination",50,"Creativity and imagination",false,"Working for outcomes",45,"Setting and striving for goals",true,"Creativity and imagination",50,"Creativity and imagination",false,1721,,,,,,,,,
5df77306c12a36506b5e95f4,forced_choice,105,348,"Resourcefulness",27,"Resourcefulness",false,"Schedule planning",44,"Time management",true,"Resourcefulness",27,"Resourcefulness",false,"Schedule planning",44,"Time management",true,1610,,,,,,,,,
5df77306c12a36506b5e95f4,forced_choice,106,348,"Situational awareness",7,"Perception",true,"Proficiencies",51,"Knowledge and skills",true,"Proficiencies",51,"Knowledge and skills",true,"Situational awareness",7,"Perception",true,2093,,,,,,,,,
5df77306c12a36506b5e95f4,forced_choice,107,348,"Reaction to group influence",22,"Response to peer pressure",true,"Concentration",40,"Attention",true,"Reaction to group influence",22,"Response to peer pressure",true,"Concentration",40,"Attention",true,1530,,,,,,,,,
5df77306c12a36506b5e95f4,forced_choice,108,348,"Drive or ambition",54,"Motivation",true,"Regulating feelings",29,"Managing emotions",true,"Regulating feelings",29,"Managing emotions",true,"Drive or ambition",54,"Motivation",true,1549,,,,,,,,,
5df77306c12a36506b5e95f4,forced_choice,109,348,"Prospective view",72,"Future outlook",true,"Overcoming obstacles",37,"Problem solving",true,"Overcoming obstacles",37,"Problem solving",true,"Prospective view",72,"Future outlook",true,1409,,,,,,,,,
5df77306c12a36506b5e95f4,attention_check,111,,,,,,,,,,,,,,,,,,1680,"Social skills","Social skills",true,,,,,,
5df77306c12a36506b5e95f4,forced_choice,110,348,"Psychological balance",84,"Emotional well-being",true,"Concentration",40,"Attention",true,"Psychological balance",84,"Emotional well-being",true,"Concentration",40,"Attention",true,4592,,,,,,,,,
5df77306c12a36506b5e95f4,forced_choice,111,348,"Cognitive control",34,"Managing thoughts",true,"Concentration",40,"Attention",true,"Cognitive control",34,"Managing thoughts",true,"Concentration",40,"Attention",true,3011,,,,,,,,,
5df77306c12a36506b5e95f4,forced_choice,112,348,"Scholastic achievement",88,"Academic performance",true,"Sense of duty",66,"Responsibility",true,"Scholastic achievement",88,"Academic performance",true,"Sense of duty",66,"Responsibility",true,1267,,,,,,,,,
5df77306c12a36506b5e95f4,forced_choice,113,348,"Cognitive control",34,"Managing thoughts",true,"Working for outcomes",45,"Setting and striving for goals",true,"Working for outcomes",45,"Setting and striving for goals",true,"Cognitive control",34,"Managing thoughts",true,1952,,,,,,,,,
5df77306c12a36506b5e95f4,forced_choice,114,348,"Psychological balance",84,"Emotional well-being",true,"Self-reliance",68,"Independence",true,"Psychological balance",84,"Emotional well-being",true,"Self-reliance",68,"Independence",true,1821,,,,,,,,,
5df77306c12a36506b5e95f4,forced_choice,115,348,"Scholastic achievement",88,"Academic performance",true,"Inbound communication",2,"Receptive communication",true,"Scholastic achievement",88,"Academic performance",true,"Inbound communication",2,"Receptive communication",true,2284,,,,,,,,,
5df77306c12a36506b5e95f4,forced_choice,116,348,"Sense of duty",66,"Responsibility",true,"Drive or ambition",54,"Motivation",true,"Drive or ambition",54,"Motivation",true,"Sense of duty",66,"Responsibility",true,1469,,,,,,,,,
5df77306c12a36506b5e95f4,forced_choice,117,348,"Sense of safety",21,"Sense of safety",false,"Self-awareness",76,"Self-awareness",false,"Self-awareness",76,"Self-awareness",false,"Sense of safety",21,"Sense of safety",false,996,,,,,,,,,
5df77306c12a36506b5e95f4,forced_choice,118,348,"Drive or ambition",54,"Motivation",true,"Sense of safety",21,"Sense of safety",false,"Sense of safety",21,"Sense of safety",false,"Drive or ambition",54,"Motivation",true,1037,,,,,,,,,
5df77306c12a36506b5e95f4,forced_choice,119,348,"Fairness",60,"Fairness",false,"Proficiencies",51,"Knowledge and skills",true,"Proficiencies",51,"Knowledge and skills",true,"Fairness",60,"Fairness",false,1136,,,,,,,,,
5df77306c12a36506b5e95f4,forced_choice,120,348,"Psychological balance",84,"Emotional well-being",true,"Proficiencies",51,"Knowledge and skills",true,"Proficiencies",51,"Knowledge and skills",true,"Psychological balance",84,"Emotional well-being",true,1549,,,,,,,,,
5df77306c12a36506b5e95f4,forced_choice,121,348,"Sense of safety",21,"Sense of safety",false,"Proficiencies",51,"Knowledge and skills",true,"Proficiencies",51,"Knowledge and skills",true,"Sense of safety",21,"Sense of safety",false,1126,,,,,,,,,
5df77306c12a36506b5e95f4,forced_choice,122,348,"Drive or ambition",54,"Motivation",true,"Schedule planning",44,"Time management",true,"Drive or ambition",54,"Motivation",true,"Schedule planning",44,"Time management",true,2345,,,,,,,,,
5df77306c12a36506b5e95f4,forced_choice,123,348,"Reaction to group influence",22,"Response to peer pressure",true,"Overcoming obstacles",37,"Problem solving",true,"Reaction to group influence",22,"Response to peer pressure",true,"Overcoming obstacles",37,"Problem solving",true,1469,,,,,,,,,
5df77306c12a36506b5e95f4,forced_choice,124,348,"Schedule planning",44,"Time management",true,"Psychological balance",84,"Emotional well-being",true,"Psychological balance",84,"Emotional well-being",true,"Schedule planning",44,"Time management",true,1751,,,,,,,,,
5df77306c12a36506b5e95f4,forced_choice,125,348,"Confidence in groups",13,"Comfort in social situations",true,"Schedule planning",44,"Time management",true,"Confidence in groups",13,"Comfort in social situations",true,"Schedule planning",44,"Time management",true,1801,,,,,,,,,
5df77306c12a36506b5e95f4,forced_choice,126,348,"Proficiencies",51,"Knowledge and skills",true,"Inbound communication",2,"Receptive communication",true,"Proficiencies",51,"Knowledge and skills",true,"Inbound communication",2,"Receptive communication",true,1156,,,,,,,,,
5df77306c12a36506b5e95f4,forced_choice,127,348,"Self-reliance",68,"Independence",true,"Drive or ambition",54,"Motivation",true,"Self-reliance",68,"Independence",true,"Drive or ambition",54,"Motivation",true,4087,,,,,,,,,
5df77306c12a36506b5e95f4,forced_choice,128,348,"Self-awareness",76,"Self-awareness",false,"Overcoming obstacles",37,"Problem solving",true,"Overcoming obstacles",37,"Problem solving",true,"Self-awareness",76,"Self-awareness",false,1630,,,,,,,,,
5df77306c12a36506b5e95f4,forced_choice,129,348,"Cultural sensitivity",59,"Respect for others",true,"Sense of duty",66,"Responsibility",true,"Cultural sensitivity",59,"Respect for others",true,"Sense of duty",66,"Responsibility",true,1610,,,,,,,,,
5df77306c12a36506b5e95f4,forced_choice,130,348,"Proactive",69,"Initiative",true,"Psychological balance",84,"Emotional well-being",true,"Proactive",69,"Initiative",true,"Psychological balance",84,"Emotional well-being",true,2547,,,,,,,,,
5df77306c12a36506b5e95f4,forced_choice,131,348,"Creativity and imagination",50,"Creativity and imagination",false,"Cultural sensitivity",59,"Respect for others",true,"Creativity and imagination",50,"Creativity and imagination",false,"Cultural sensitivity",59,"Respect for others",true,1147,,,,,,,,,
5df77306c12a36506b5e95f4,forced_choice,132,348,"Concentration",40,"Attention",true,"Scholastic achievement",88,"Academic performance",true,"Scholastic achievement",88,"Academic performance",true,"Concentration",40,"Attention",true,1711,,,,,,,,,
5df77306c12a36506b5e95f4,forced_choice,133,348,"Cognitive control",34,"Managing thoughts",true,"Self-awareness",76,"Self-awareness",false,"Cognitive control",34,"Managing thoughts",true,"Self-awareness",76,"Self-awareness",false,1782,,,,,,,,,
5df77306c12a36506b5e95f4,forced_choice,134,348,"Self-awareness",76,"Self-awareness",false,"Drive or ambition",54,"Motivation",true,"Self-awareness",76,"Self-awareness",false,"Drive or ambition",54,"Motivation",true,1238,,,,,,,,,
5df77306c12a36506b5e95f4,forced_choice,135,348,"Schedule planning",44,"Time management",true,"Fairness",60,"Fairness",false,"Schedule planning",44,"Time management",true,"Fairness",60,"Fairness",false,1822,,,,,,,,,
5df77306c12a36506b5e95f4,forced_choice,136,348,"Proactive",69,"Initiative",true,"Working for outcomes",45,"Setting and striving for goals",true,"Proactive",69,"Initiative",true,"Working for outcomes",45,"Setting and striving for goals",true,1137,,,,,,,,,
5df77306c12a36506b5e95f4,forced_choice,137,348,"Drive or ambition",54,"Motivation",true,"Inbound communication",2,"Receptive communication",true,"Inbound communication",2,"Receptive communication",true,"Drive or ambition",54,"Motivation",true,1550,,,,,,,,,
5df77306c12a36506b5e95f4,forced_choice,138,348,"Working for outcomes",45,"Setting and striving for goals",true,"Family bonds",10,"Relationships with parents",true,"Working for outcomes",45,"Setting and striving for goals",true,"Family bonds",10,"Relationships with parents",true,1438,,,,,,,,,
5df77306c12a36506b5e95f4,forced_choice,139,348,"Psychological balance",84,"Emotional well-being",true,"Resourcefulness",27,"Resourcefulness",false,"Resourcefulness",27,"Resourcefulness",false,"Psychological balance",84,"Emotional well-being",true,1701,,,,,,,,,
5df77306c12a36506b5e95f4,forced_choice,140,348,"Overcoming obstacles",37,"Problem solving",true,"Psychological balance",84,"Emotional well-being",true,"Overcoming obstacles",37,"Problem solving",true,"Psychological balance",84,"Emotional well-being",true,1208,,,,,,,,,
5df77306c12a36506b5e95f4,forced_choice,141,348,"Confidence in groups",13,"Comfort in social situations",true,"Regulating feelings",29,"Managing emotions",true,"Confidence in groups",13,"Comfort in social situations",true,"Regulating feelings",29,"Managing emotions",true,1096,,,,,,,,,
5df77306c12a36506b5e95f4,forced_choice,142,348,"Confidence in groups",13,"Comfort in social situations",true,"Scholastic achievement",88,"Academic performance",true,"Confidence in groups",13,"Comfort in social situations",true,"Scholastic achievement",88,"Academic performance",true,966,,,,,,,,,
5df77306c12a36506b5e95f4,forced_choice,143,348,"Confidence in groups",13,"Comfort in social situations",true,"Concentration",40,"Attention",true,"Concentration",40,"Attention",true,"Confidence in groups",13,"Comfort in social situations",true,1690,,,,,,,,,
5df77306c12a36506b5e95f4,forced_choice,144,348,"Drive or ambition",54,"Motivation",true,"Habits / routines",6,"Habits / routines",false,"Habits / routines",6,"Habits / routines",false,"Drive or ambition",54,"Motivation",true,1368,,,,,,,,,
5df77306c12a36506b5e95f4,forced_choice,145,348,"Fairness",60,"Fairness",false,"Creativity and imagination",50,"Creativity and imagination",false,"Creativity and imagination",50,"Creativity and imagination",false,"Fairness",60,"Fairness",false,1832,,,,,,,,,
5df77306c12a36506b5e95f4,forced_choice,146,348,"Cultural sensitivity",59,"Respect for others",true,"Fairness",60,"Fairness",false,"Fairness",60,"Fairness",false,"Cultural sensitivity",59,"Respect for others",true,1943,,,,,,,,,
5df77306c12a36506b5e95f4,forced_choice,147,348,"Self-reliance",68,"Independence",true,"Situational awareness",7,"Perception",true,"Situational awareness",7,"Perception",true,"Self-reliance",68,"Independence",true,1719,,,,,,,,,
5df77306c12a36506b5e95f4,forced_choice,148,348,"Cognitive control",34,"Managing thoughts",true,"Habits / routines",6,"Habits / routines",false,"Habits / routines",6,"Habits / routines",false,"Cognitive control",34,"Managing thoughts",true,2528,,,,,,,,,
5df77306c12a36506b5e95f4,forced_choice,149,348,"Sense of safety",21,"Sense of safety",false,"Reaction to group influence",22,"Response to peer pressure",true,"Reaction to group influence",22,"Response to peer pressure",true,"Sense of safety",21,"Sense of safety",false,1246,,,,,,,,,
5df77306c12a36506b5e95f4,forced_choice,150,348,"Proactive",69,"Initiative",true,"Self-awareness",76,"Self-awareness",false,"Proactive",69,"Initiative",true,"Self-awareness",76,"Self-awareness",false,2890,,,,,,,,,
5df77306c12a36506b5e95f4,forced_choice,151,348,"Schedule planning",44,"Time management",true,"Prospective view",72,"Future outlook",true,"Schedule planning",44,"Time management",true,"Prospective view",72,"Future outlook",true,2860,,,,,,,,,
5df77306c12a36506b5e95f4,forced_choice,152,348,"Proactive",69,"Initiative",true,"Habits / routines",6,"Habits / routines",false,"Habits / routines",6,"Habits / routines",false,"Proactive",69,"Initiative",true,1799,,,,,,,,,
5df77306c12a36506b5e95f4,forced_choice,153,348,"Resourcefulness",27,"Resourcefulness",false,"Self-reliance",68,"Independence",true,"Resourcefulness",27,"Resourcefulness",false,"Self-reliance",68,"Independence",true,1942,,,,,,,,,
5df77306c12a36506b5e95f4,forced_choice,154,348,"Prospective view",72,"Future outlook",true,"Psychological balance",84,"Emotional well-being",true,"Psychological balance",84,"Emotional well-being",true,"Prospective view",72,"Future outlook",true,2123,,,,,,,,,
5df77306c12a36506b5e95f4,forced_choice,155,348,"Drive or ambition",54,"Motivation",true,"Creativity and imagination",50,"Creativity and imagination",false,"Creativity and imagination",50,"Creativity and imagination",false,"Drive or ambition",54,"Motivation",true,1560,,,,,,,,,
5df77306c12a36506b5e95f4,forced_choice,156,348,"Self-awareness",76,"Self-awareness",false,"Resourcefulness",27,"Resourcefulness",false,"Resourcefulness",27,"Resourcefulness",false,"Self-awareness",76,"Self-awareness",false,2214,,,,,,,,,
5df77306c12a36506b5e95f4,forced_choice,157,348,"Confidence in groups",13,"Comfort in social situations",true,"Overcoming obstacles",37,"Problem solving",true,"Confidence in groups",13,"Comfort in social situations",true,"Overcoming obstacles",37,"Problem solving",true,3070,,,,,,,,,
5df77306c12a36506b5e95f4,forced_choice,158,348,"Concentration",40,"Attention",true,"Self-reliance",68,"Independence",true,"Self-reliance",68,"Independence",true,"Concentration",40,"Attention",true,3212,,,,,,,,,
5df77306c12a36506b5e95f4,forced_choice,159,348,"Reaction to group influence",22,"Response to peer pressure",true,"Schedule planning",44,"Time management",true,"Reaction to group influence",22,"Response to peer pressure",true,"Schedule planning",44,"Time management",true,1560,,,,,,,,,
5df77306c12a36506b5e95f4,forced_choice,160,348,"Inbound communication",2,"Receptive communication",true,"Family bonds",10,"Relationships with parents",true,"Inbound communication",2,"Receptive communication",true,"Family bonds",10,"Relationships with parents",true,1691,,,,,,,,,
5df77306c12a36506b5e95f4,forced_choice,161,348,"Inbound communication",2,"Receptive communication",true,"Self-awareness",76,"Self-awareness",false,"Self-awareness",76,"Self-awareness",false,"Inbound communication",2,"Receptive communication",true,2224,,,,,,,,,
5df77306c12a36506b5e95f4,forced_choice,162,348,"Prospective view",72,"Future outlook",true,"Situational awareness",7,"Perception",true,"Situational awareness",7,"Perception",true,"Prospective view",72,"Future outlook",true,1550,,,,,,,,,
5df77306c12a36506b5e95f4,forced_choice,163,348,"Drive or ambition",54,"Motivation",true,"Cultural sensitivity",59,"Respect for others",true,"Cultural sensitivity",59,"Respect for others",true,"Drive or ambition",54,"Motivation",true,1882,,,,,,,,,
5df77306c12a36506b5e95f4,forced_choice,164,348,"Habits / routines",6,"Habits / routines",false,"Concentration",40,"Attention",true,"Habits / routines",6,"Habits / routines",false,"Concentration",40,"Attention",true,1550,,,,,,,,,
5df77306c12a36506b5e95f4,attention_check,167,,,,,,,,,,,,,,,,,,1711,"Managing emotions","Managing emotions",true,,,,,,
5df77306c12a36506b5e95f4,forced_choice,165,348,"Psychological balance",84,"Emotional well-being",true,"Cultural sensitivity",59,"Respect for others",true,"Psychological balance",84,"Emotional well-being",true,"Cultural sensitivity",59,"Respect for others",true,2898,,,,,,,,,
5df77306c12a36506b5e95f4,forced_choice,166,348,"Resourcefulness",27,"Resourcefulness",false,"Cultural sensitivity",59,"Respect for others",true,"Resourcefulness",27,"Resourcefulness",false,"Cultural sensitivity",59,"Respect for others",true,854,,,,,,,,,
5df77306c12a36506b5e95f4,forced_choice,167,348,"Family bonds",10,"Relationships with parents",true,"Self-reliance",68,"Independence",true,"Self-reliance",68,"Independence",true,"Family bonds",10,"Relationships with parents",true,1530,,,,,,,,,
5df77306c12a36506b5e95f4,forced_choice,168,348,"Situational awareness",7,"Perception",true,"Cultural sensitivity",59,"Respect for others",true,"Situational awareness",7,"Perception",true,"Cultural sensitivity",59,"Respect for others",true,1499,,,,,,,,,
5df77306c12a36506b5e95f4,forced_choice,169,348,"Psychological balance",84,"Emotional well-being",true,"Fairness",60,"Fairness",false,"Psychological balance",84,"Emotional well-being",true,"Fairness",60,"Fairness",false,1147,,,,,,,,,
5df77306c12a36506b5e95f4,forced_choice,170,348,"Creativity and imagination",50,"Creativity and imagination",false,"Family bonds",10,"Relationships with parents",true,"Creativity and imagination",50,"Creativity and imagination",false,"Family bonds",10,"Relationships with parents",true,1096,,,,,,,,,
5df77306c12a36506b5e95f4,forced_choice,171,348,"Regulating feelings",29,"Managing emotions",true,"Schedule planning",44,"Time management",true,"Regulating feelings",29,"Managing emotions",true,"Schedule planning",44,"Time management",true,1268,,,,,,,,,
5df77306c12a36506b5e95f4,forced_choice,172,348,"Cultural sensitivity",59,"Respect for others",true,"Scholastic achievement",88,"Academic performance",true,"Scholastic achievement",88,"Academic performance",true,"Cultural sensitivity",59,"Respect for others",true,1600,,,,,,,,,
5df77306c12a36506b5e95f4,forced_choice,173,348,"Regulating feelings",29,"Managing emotions",true,"Proficiencies",51,"Knowledge and skills",true,"Proficiencies",51,"Knowledge and skills",true,"Regulating feelings",29,"Managing emotions",true,2204,,,,,,,,,
5df77306c12a36506b5e95f4,forced_choice,174,348,"Creativity and imagination",50,"Creativity and imagination",false,"Proactive",69,"Initiative",true,"Proactive",69,"Initiative",true,"Creativity and imagination",50,"Creativity and imagination",false,1721,,,,,,,,,
5df77306c12a36506b5e95f4,forced_choice,175,348,"Creativity and imagination",50,"Creativity and imagination",false,"Reaction to group influence",22,"Response to peer pressure",true,"Creativity and imagination",50,"Creativity and imagination",false,"Reaction to group influence",22,"Response to peer pressure",true,2134,,,,,,,,,
5df77306c12a36506b5e95f4,forced_choice,176,348,"Cultural sensitivity",59,"Respect for others",true,"Proactive",69,"Initiative",true,"Proactive",69,"Initiative",true,"Cultural sensitivity",59,"Respect for others",true,1258,,,,,,,,,
5df77306c12a36506b5e95f4,forced_choice,177,348,"Sense of duty",66,"Responsibility",true,"Schedule planning",44,"Time management",true,"Sense of duty",66,"Responsibility",true,"Schedule planning",44,"Time management",true,4662,,,,,,,,,
5df77306c12a36506b5e95f4,forced_choice,178,348,"Family bonds",10,"Relationships with parents",true,"Situational awareness",7,"Perception",true,"Situational awareness",7,"Perception",true,"Family bonds",10,"Relationships with parents",true,1499,,,,,,,,,
5df77306c12a36506b5e95f4,forced_choice,179,348,"Self-reliance",68,"Independence",true,"Cultural sensitivity",59,"Respect for others",true,"Self-reliance",68,"Independence",true,"Cultural sensitivity",59,"Respect for others",true,1539,,,,,,,,,
5df77306c12a36506b5e95f4,forced_choice,180,348,"Concentration",40,"Attention",true,"Proficiencies",51,"Knowledge and skills",true,"Proficiencies",51,"Knowledge and skills",true,"Concentration",40,"Attention",true,3342,,,,,,,,,
5df77306c12a36506b5e95f4,forced_choice,181,348,"Regulating feelings",29,"Managing emotions",true,"Reaction to group influence",22,"Response to peer pressure",true,"Reaction to group influence",22,"Response to peer pressure",true,"Regulating feelings",29,"Managing emotions",true,2497,,,,,,,,,
5df77306c12a36506b5e95f4,forced_choice,182,348,"Working for outcomes",45,"Setting and striving for goals",true,"Concentration",40,"Attention",true,"Working for outcomes",45,"Setting and striving for goals",true,"Concentration",40,"Attention",true,1531,,,,,,,,,
5df77306c12a36506b5e95f4,forced_choice,183,348,"Cognitive control",34,"Managing thoughts",true,"Schedule planning",44,"Time management",true,"Cognitive control",34,"Managing thoughts",true,"Schedule planning",44,"Time management",true,1619,,,,,,,,,
5df77306c12a36506b5e95f4,forced_choice,184,348,"Scholastic achievement",88,"Academic performance",true,"Psychological balance",84,"Emotional well-being",true,"Scholastic achievement",88,"Academic performance",true,"Psychological balance",84,"Emotional well-being",true,1218,,,,,,,,,
5df77306c12a36506b5e95f4,forced_choice,185,348,"Overcoming obstacles",37,"Problem solving",true,"Drive or ambition",54,"Motivation",true,"Overcoming obstacles",37,"Problem solving",true,"Drive or ambition",54,"Motivation",true,1306,,,,,,,,,
5df77306c12a36506b5e95f4,forced_choice,186,348,"Cognitive control",34,"Managing thoughts",true,"Psychological balance",84,"Emotional well-being",true,"Cognitive control",34,"Managing thoughts",true,"Psychological balance",84,"Emotional well-being",true,1771,,,,,,,,,
5df77306c12a36506b5e95f4,forced_choice,187,348,"Proactive",69,"Initiative",true,"Reaction to group influence",22,"Response to peer pressure",true,"Proactive",69,"Initiative",true,"Reaction to group influence",22,"Response to peer pressure",true,1238,,,,,,,,,
5df77306c12a36506b5e95f4,forced_choice,188,348,"Self-awareness",76,"Self-awareness",false,"Working for outcomes",45,"Setting and striving for goals",true,"Self-awareness",76,"Self-awareness",false,"Working for outcomes",45,"Setting and striving for goals",true,1399,,,,,,,,,
5df77306c12a36506b5e95f4,forced_choice,189,348,"Situational awareness",7,"Perception",true,"Habits / routines",6,"Habits / routines",false,"Habits / routines",6,"Habits / routines",false,"Situational awareness",7,"Perception",true,2275,,,,,,,,,
5df77306c12a36506b5e95f4,forced_choice,190,348,"Sense of safety",21,"Sense of safety",false,"Confidence in groups",13,"Comfort in social situations",true,"Confidence in groups",13,"Comfort in social situations",true,"Sense of safety",21,"Sense of safety",false,1691,,,,,,,,,
5df77306c12a36506b5e95f4,forced_choice,191,348,"Self-reliance",68,"Independence",true,"Proficiencies",51,"Knowledge and skills",true,"Proficiencies",51,"Knowledge and skills",true,"Self-reliance",68,"Independence",true,1680,,,,,,,,,
5df77306c12a36506b5e95f4,forced_choice,192,348,"Family bonds",10,"Relationships with parents",true,"Resourcefulness",27,"Resourcefulness",false,"Resourcefulness",27,"Resourcefulness",false,"Family bonds",10,"Relationships with parents",true,1328,,,,,,,,,
5df77306c12a36506b5e95f4,forced_choice,193,348,"Overcoming obstacles",37,"Problem solving",true,"Inbound communication",2,"Receptive communication",true,"Overcoming obstacles",37,"Problem solving",true,"Inbound communication",2,"Receptive communication",true,3212,,,,,,,,,
5df77306c12a36506b5e95f4,forced_choice,194,348,"Situational awareness",7,"Perception",true,"Working for outcomes",45,"Setting and striving for goals",true,"Working for outcomes",45,"Setting and striving for goals",true,"Situational awareness",7,"Perception",true,2235,,,,,,,,,
5df77306c12a36506b5e95f4,forced_choice,195,348,"Concentration",40,"Attention",true,"Proactive",69,"Initiative",true,"Proactive",69,"Initiative",true,"Concentration",40,"Attention",true,1711,,,,,,,,,
5df77306c12a36506b5e95f4,forced_choice,196,348,"Proactive",69,"Initiative",true,"Overcoming obstacles",37,"Problem solving",true,"Proactive",69,"Initiative",true,"Overcoming obstacles",37,"Problem solving",true,1438,,,,,,,,,
5df77306c12a36506b5e95f4,forced_choice,197,348,"Regulating feelings",29,"Managing emotions",true,"Self-reliance",68,"Independence",true,"Self-reliance",68,"Independence",true,"Regulating feelings",29,"Managing emotions",true,1902,,,,,,,,,
5df77306c12a36506b5e95f4,forced_choice,198,348,"Sense of safety",21,"Sense of safety",false,"Proactive",69,"Initiative",true,"Proactive",69,"Initiative",true,"Sense of safety",21,"Sense of safety",false,1369,,,,,,,,,
5df77306c12a36506b5e95f4,forced_choice,199,348,"Prospective view",72,"Future outlook",true,"Sense of duty",66,"Responsibility",true,"Prospective view",72,"Future outlook",true,"Sense of duty",66,"Responsibility",true,1762,,,,,,,,,
5df77306c12a36506b5e95f4,forced_choice,200,348,"Concentration",40,"Attention",true,"Sense of duty",66,"Responsibility",true,"Concentration",40,"Attention",true,"Sense of duty",66,"Responsibility",true,1570,,,,,,,,,
5df77306c12a36506b5e95f4,forced_choice,201,348,"Proficiencies",51,"Knowledge and skills",true,"Overcoming obstacles",37,"Problem solving",true,"Proficiencies",51,"Knowledge and skills",true,"Overcoming obstacles",37,"Problem solving",true,744,,,,,,,,,
5df77306c12a36506b5e95f4,forced_choice,202,348,"Regulating feelings",29,"Managing emotions",true,"Cognitive control",34,"Managing thoughts",true,"Cognitive control",34,"Managing thoughts",true,"Regulating feelings",29,"Managing emotions",true,2093,,,,,,,,,
5df77306c12a36506b5e95f4,forced_choice,203,348,"Concentration",40,"Attention",true,"Resourcefulness",27,"Resourcefulness",false,"Resourcefulness",27,"Resourcefulness",false,"Concentration",40,"Attention",true,1852,,,,,,,,,
5df77306c12a36506b5e95f4,forced_choice,204,348,"Fairness",60,"Fairness",false,"Drive or ambition",54,"Motivation",true,"Drive or ambition",54,"Motivation",true,"Fairness",60,"Fairness",false,1983,,,,,,,,,
5df77306c12a36506b5e95f4,forced_choice,205,348,"Cultural sensitivity",59,"Respect for others",true,"Regulating feelings",29,"Managing emotions",true,"Regulating feelings",29,"Managing emotions",true,"Cultural sensitivity",59,"Respect for others",true,1358,,,,,,,,,
5df77306c12a36506b5e95f4,forced_choice,206,348,"Fairness",60,"Fairness",false,"Sense of safety",21,"Sense of safety",false,"Fairness",60,"Fairness",false,"Sense of safety",21,"Sense of safety",false,1409,,,,,,,,,
5df77306c12a36506b5e95f4,forced_choice,207,348,"Confidence in groups",13,"Comfort in social situations",true,"Drive or ambition",54,"Motivation",true,"Confidence in groups",13,"Comfort in social situations",true,"Drive or ambition",54,"Motivation",true,3162,,,,,,,,,
5df77306c12a36506b5e95f4,forced_choice,208,348,"Sense of safety",21,"Sense of safety",false,"Working for outcomes",45,"Setting and striving for goals",true,"Working for outcomes",45,"Setting and striving for goals",true,"Sense of safety",21,"Sense of safety",false,1308,,,,,,,,,
5df77306c12a36506b5e95f4,forced_choice,209,348,"Proactive",69,"Initiative",true,"Situational awareness",7,"Perception",true,"Proactive",69,"Initiative",true,"Situational awareness",7,"Perception",true,1691,,,,,,,,,
5df77306c12a36506b5e95f4,forced_choice,210,348,"Reaction to group influence",22,"Response to peer pressure",true,"Prospective view",72,"Future outlook",true,"Reaction to group influence",22,"Response to peer pressure",true,"Prospective view",72,"Future outlook",true,1791,,,,,,,,,
5df77306c12a36506b5e95f4,forced_choice,211,348,"Fairness",60,"Fairness",false,"Family bonds",10,"Relationships with parents",true,"Fairness",60,"Fairness",false,"Family bonds",10,"Relationships with parents",true,1489,,,,,,,,,
5df77306c12a36506b5e95f4,forced_choice,212,348,"Regulating feelings",29,"Managing emotions",true,"Family bonds",10,"Relationships with parents",true,"Regulating feelings",29,"Managing emotions",true,"Family bonds",10,"Relationships with parents",true,1208,,,,,,,,,
5df77306c12a36506b5e95f4,forced_choice,213,348,"Confidence in groups",13,"Comfort in social situations",true,"Prospective view",72,"Future outlook",true,"Confidence in groups",13,"Comfort in social situations",true,"Prospective view",72,"Future outlook",true,1842,,,,,,,,,
5df77306c12a36506b5e95f4,forced_choice,214,348,"Family bonds",10,"Relationships with parents",true,"Drive or ambition",54,"Motivation",true,"Drive or ambition",54,"Motivation",true,"Family bonds",10,"Relationships with parents",true,2649,,,,,,,,,
5df77306c12a36506b5e95f4,forced_choice,215,348,"Confidence in groups",13,"Comfort in social situations",true,"Working for outcomes",45,"Setting and striving for goals",true,"Working for outcomes",45,"Setting and striving for goals",true,"Confidence in groups",13,"Comfort in social situations",true,1822,,,,,,,,,
5df77306c12a36506b5e95f4,forced_choice,216,348,"Situational awareness",7,"Perception",true,"Self-awareness",76,"Self-awareness",false,"Self-awareness",76,"Self-awareness",false,"Situational awareness",7,"Perception",true,1389,,,,,,,,,
5df77306c12a36506b5e95f4,forced_choice,217,348,"Resourcefulness",27,"Resourcefulness",false,"Prospective view",72,"Future outlook",true,"Resourcefulness",27,"Resourcefulness",false,"Prospective view",72,"Future outlook",true,1661,,,,,,,,,
5df77306c12a36506b5e95f4,forced_choice,218,348,"Regulating feelings",29,"Managing emotions",true,"Creativity and imagination",50,"Creativity and imagination",false,"Creativity and imagination",50,"Creativity and imagination",false,"Regulating feelings",29,"Managing emotions",true,1782,,,,,,,,,
5df77306c12a36506b5e95f4,forced_choice,219,348,"Fairness",60,"Fairness",false,"Habits / routines",6,"Habits / routines",false,"Habits / routines",6,"Habits / routines",false,"Fairness",60,"Fairness",false,996,,,,,,,,,
5df77306c12a36506b5e95f4,attention_check,223,,,,,,,,,,,,,,,,,,1439,"Social skills","Social skills",true,,,,,,
5df77306c12a36506b5e95f4,forced_choice,220,348,"Confidence in groups",13,"Comfort in social situations",true,"Situational awareness",7,"Perception",true,"Confidence in groups",13,"Comfort in social situations",true,"Situational awareness",7,"Perception",true,3886,,,,,,,,,
5df77306c12a36506b5e95f4,forced_choice,221,348,"Habits / routines",6,"Habits / routines",false,"Self-reliance",68,"Independence",true,"Habits / routines",6,"Habits / routines",false,"Self-reliance",68,"Independence",true,875,,,,,,,,,
5df77306c12a36506b5e95f4,forced_choice,222,348,"Psychological balance",84,"Emotional well-being",true,"Sense of safety",21,"Sense of safety",false,"Psychological balance",84,"Emotional well-being",true,"Sense of safety",21,"Sense of safety",false,945,,,,,,,,,
5df77306c12a36506b5e95f4,forced_choice,223,348,"Sense of safety",21,"Sense of safety",false,"Family bonds",10,"Relationships with parents",true,"Sense of safety",21,"Sense of safety",false,"Family bonds",10,"Relationships with parents",true,1781,,,,,,,,,
5df77306c12a36506b5e95f4,forced_choice,224,348,"Self-awareness",76,"Self-awareness",false,"Fairness",60,"Fairness",false,"Self-awareness",76,"Self-awareness",false,"Fairness",60,"Fairness",false,1228,,,,,,,,,
5df77306c12a36506b5e95f4,forced_choice,225,348,"Prospective view",72,"Future outlook",true,"Self-reliance",68,"Independence",true,"Prospective view",72,"Future outlook",true,"Self-reliance",68,"Independence",true,1156,,,,,,,,,
5df77306c12a36506b5e95f4,forced_choice,226,348,"Proactive",69,"Initiative",true,"Prospective view",72,"Future outlook",true,"Proactive",69,"Initiative",true,"Prospective view",72,"Future outlook",true,986,,,,,,,,,
5df77306c12a36506b5e95f4,forced_choice,227,348,"Sense of duty",66,"Responsibility",true,"Fairness",60,"Fairness",false,"Sense of duty",66,"Responsibility",true,"Fairness",60,"Fairness",false,2748,,,,,,,,,
5df77306c12a36506b5e95f4,forced_choice,228,348,"Inbound communication",2,"Receptive communication",true,"Prospective view",72,"Future outlook",true,"Prospective view",72,"Future outlook",true,"Inbound communication",2,"Receptive communication",true,1500,,,,,,,,,
5df77306c12a36506b5e95f4,forced_choice,229,348,"Inbound communication",2,"Receptive communication",true,"Resourcefulness",27,"Resourcefulness",false,"Resourcefulness",27,"Resourcefulness",false,"Inbound communication",2,"Receptive communication",true,1509,,,,,,,,,
5df77306c12a36506b5e95f4,forced_choice,230,348,"Prospective view",72,"Future outlook",true,"Family bonds",10,"Relationships with parents",true,"Prospective view",72,"Future outlook",true,"Family bonds",10,"Relationships with parents",true,1306,,,,,,,,,
5df77306c12a36506b5e95f4,forced_choice,231,348,"Reaction to group influence",22,"Response to peer pressure",true,"Habits / routines",6,"Habits / routines",false,"Habits / routines",6,"Habits / routines",false,"Reaction to group influence",22,"Response to peer pressure",true,1922,,,,,,,,,
5df77306c12a36506b5e95f4,forced_choice,232,348,"Creativity and imagination",50,"Creativity and imagination",false,"Concentration",40,"Attention",true,"Creativity and imagination",50,"Creativity and imagination",false,"Concentration",40,"Attention",true,1247,,,,,,,,,
5df77306c12a36506b5e95f4,forced_choice,233,348,"Family bonds",10,"Relationships with parents",true,"Proficiencies",51,"Knowledge and skills",true,"Proficiencies",51,"Knowledge and skills",true,"Family bonds",10,"Relationships with parents",true,1348,,,,,,,,,
5df77306c12a36506b5e95f4,forced_choice,234,348,"Family bonds",10,"Relationships with parents",true,"Proactive",69,"Initiative",true,"Proactive",69,"Initiative",true,"Family bonds",10,"Relationships with parents",true,996,,,,,,,,,
5df77306c12a36506b5e95f4,forced_choice,235,348,"Prospective view",72,"Future outlook",true,"Habits / routines",6,"Habits / routines",false,"Habits / routines",6,"Habits / routines",false,"Prospective view",72,"Future outlook",true,1268,,,,,,,,,
5df77306c12a36506b5e95f4,forced_choice,236,348,"Resourcefulness",27,"Resourcefulness",false,"Creativity and imagination",50,"Creativity and imagination",false,"Resourcefulness",27,"Resourcefulness",false,"Creativity and imagination",50,"Creativity and imagination",false,2245,,,,,,,,,
5df77306c12a36506b5e95f4,forced_choice,237,348,"Inbound communication",2,"Receptive communication",true,"Concentration",40,"Attention",true,"Concentration",40,"Attention",true,"Inbound communication",2,"Receptive communication",true,1288,,,,,,,,,
5df77306c12a36506b5e95f4,forced_choice,238,348,"Situational awareness",7,"Perception",true,"Resourcefulness",27,"Resourcefulness",false,"Resourcefulness",27,"Resourcefulness",false,"Situational awareness",7,"Perception",true,2275,,,,,,,,,
5df77306c12a36506b5e95f4,forced_choice,239,348,"Family bonds",10,"Relationships with parents",true,"Scholastic achievement",88,"Academic performance",true,"Scholastic achievement",88,"Academic performance",true,"Family bonds",10,"Relationships with parents",true,1046,,,,,,,,,
5df77306c12a36506b5e95f4,forced_choice,240,348,"Cultural sensitivity",59,"Respect for others",true,"Prospective view",72,"Future outlook",true,"Prospective view",72,"Future outlook",true,"Cultural sensitivity",59,"Respect for others",true,1691,,,,,,,,,
5df77306c12a36506b5e95f4,forced_choice,241,348,"Cultural sensitivity",59,"Respect for others",true,"Concentration",40,"Attention",true,"Concentration",40,"Attention",true,"Cultural sensitivity",59,"Respect for others",true,1409,,,,,,,,,
5df77306c12a36506b5e95f4,forced_choice,242,348,"Working for outcomes",45,"Setting and striving for goals",true,"Proficiencies",51,"Knowledge and skills",true,"Proficiencies",51,"Knowledge and skills",true,"Working for outcomes",45,"Setting and striving for goals",true,1379,,,,,,,,,
5df77306c12a36506b5e95f4,forced_choice,243,348,"Overcoming obstacles",37,"Problem solving",true,"Cognitive control",34,"Managing thoughts",true,"Overcoming obstacles",37,"Problem solving",true,"Cognitive control",34,"Managing thoughts",true,1822,,,,,,,,,
5df77306c12a36506b5e95f4,forced_choice,244,348,"Self-reliance",68,"Independence",true,"Proactive",69,"Initiative",true,"Proactive",69,"Initiative",true,"Self-reliance",68,"Independence",true,1207,,,,,,,,,
5df77306c12a36506b5e95f4,forced_choice,245,348,"Scholastic achievement",88,"Academic performance",true,"Sense of safety",21,"Sense of safety",false,"Scholastic achievement",88,"Academic performance",true,"Sense of safety",21,"Sense of safety",false,1520,,,,,,,,,
5df77306c12a36506b5e95f4,forced_choice,246,348,"Confidence in groups",13,"Comfort in social situations",true,"Cultural sensitivity",59,"Respect for others",true,"Confidence in groups",13,"Comfort in social situations",true,"Cultural sensitivity",59,"Respect for others",true,1268,,,,,,,,,
5df77306c12a36506b5e95f4,forced_choice,247,348,"Resourcefulness",27,"Resourcefulness",false,"Reaction to group influence",22,"Response to peer pressure",true,"Resourcefulness",27,"Resourcefulness",false,"Reaction to group influence",22,"Response to peer pressure",true,1318,,,,,,,,,
5df77306c12a36506b5e95f4,forced_choice,248,348,"Regulating feelings",29,"Managing emotions",true,"Sense of safety",21,"Sense of safety",false,"Regulating feelings",29,"Managing emotions",true,"Sense of safety",21,"Sense of safety",false,1560,,,,,,,,,
5df77306c12a36506b5e95f4,forced_choice,249,348,"Drive or ambition",54,"Motivation",true,"Scholastic achievement",88,"Academic performance",true,"Scholastic achievement",88,"Academic performance",true,"Drive or ambition",54,"Motivation",true,1600,,,,,,,,,
5df77306c12a36506b5e95f4,forced_choice,250,348,"Self-awareness",76,"Self-awareness",false,"Proficiencies",51,"Knowledge and skills",true,"Proficiencies",51,"Knowledge and skills",true,"Self-awareness",76,"Self-awareness",false,1601,,,,,,,,,
5df77306c12a36506b5e95f4,forced_choice,251,348,"Sense of safety",21,"Sense of safety",false,"Cognitive control",34,"Managing thoughts",true,"Cognitive control",34,"Managing thoughts",true,"Sense of safety",21,"Sense of safety",false,1700,,,,,,,,,
5df77306c12a36506b5e95f4,forced_choice,252,348,"Sense of safety",21,"Sense of safety",false,"Self-reliance",68,"Independence",true,"Self-reliance",68,"Independence",true,"Sense of safety",21,"Sense of safety",false,1559,,,,,,,,,
5df77306c12a36506b5e95f4,forced_choice,253,348,"Sense of duty",66,"Responsibility",true,"Overcoming obstacles",37,"Problem solving",true,"Overcoming obstacles",37,"Problem solving",true,"Sense of duty",66,"Responsibility",true,1006,,,,,,,,,
5df77306c12a36506b5e95f4,forced_choice,254,348,"Inbound communication",2,"Receptive communication",true,"Schedule planning",44,"Time management",true,"Inbound communication",2,"Receptive communication",true,"Schedule planning",44,"Time management",true,1438,,,,,,,,,
5df77306c12a36506b5e95f4,forced_choice,255,348,"Schedule planning",44,"Time management",true,"Sense of safety",21,"Sense of safety",false,"Schedule planning",44,"Time management",true,"Sense of safety",21,"Sense of safety",false,2174,,,,,,,,,
5df77306c12a36506b5e95f4,forced_choice,256,348,"Fairness",60,"Fairness",false,"Reaction to group influence",22,"Response to peer pressure",true,"Reaction to group influence",22,"Response to peer pressure",true,"Fairness",60,"Fairness",false,1349,,,,,,,,,
5df77306c12a36506b5e95f4,forced_choice,257,348,"Confidence in groups",13,"Comfort in social situations",true,"Proactive",69,"Initiative",true,"Proactive",69,"Initiative",true,"Confidence in groups",13,"Comfort in social situations",true,1671,,,,,,,,,
5df77306c12a36506b5e95f4,forced_choice,258,348,"Sense of duty",66,"Responsibility",true,"Cognitive control",34,"Managing thoughts",true,"Cognitive control",34,"Managing thoughts",true,"Sense of duty",66,"Responsibility",true,2154,,,,,,,,,
5df77306c12a36506b5e95f4,forced_choice,259,348,"Regulating feelings",29,"Managing emotions",true,"Working for outcomes",45,"Setting and striving for goals",true,"Working for outcomes",45,"Setting and striving for goals",true,"Regulating feelings",29,"Managing emotions",true,1570,,,,,,,,,
5df77306c12a36506b5e95f4,forced_choice,260,348,"Inbound communication",2,"Receptive communication",true,"Creativity and imagination",50,"Creativity and imagination",false,"Creativity and imagination",50,"Creativity and imagination",false,"Inbound communication",2,"Receptive communication",true,1106,,,,,,,,,
5df77306c12a36506b5e95f4,forced_choice,261,348,"Working for outcomes",45,"Setting and striving for goals",true,"Reaction to group influence",22,"Response to peer pressure",true,"Working for outcomes",45,"Setting and striving for goals",true,"Reaction to group influence",22,"Response to peer pressure",true,2225,,,,,,,,,
5df77306c12a36506b5e95f4,forced_choice,262,348,"Fairness",60,"Fairness",false,"Overcoming obstacles",37,"Problem solving",true,"Overcoming obstacles",37,"Problem solving",true,"Fairness",60,"Fairness",false,1450,,,,,,,,,
5df77306c12a36506b5e95f4,forced_choice,263,348,"Situational awareness",7,"Perception",true,"Schedule planning",44,"Time management",true,"Situational awareness",7,"Perception",true,"Schedule planning",44,"Time management",true,1147,,,,,,,,,
5df77306c12a36506b5e95f4,forced_choice,264,348,"Resourcefulness",27,"Resourcefulness",false,"Working for outcomes",45,"Setting and striving for goals",true,"Resourcefulness",27,"Resourcefulness",false,"Working for outcomes",45,"Setting and striving for goals",true,1580,,,,,,,,,
5df77306c12a36506b5e95f4,forced_choice,265,348,"Prospective view",72,"Future outlook",true,"Self-awareness",76,"Self-awareness",false,"Self-awareness",76,"Self-awareness",false,"Prospective view",72,"Future outlook",true,2880,,,,,,,,,
5df77306c12a36506b5e95f4,forced_choice,266,348,"Inbound communication",2,"Receptive communication",true,"Working for outcomes",45,"Setting and striving for goals",true,"Working for outcomes",45,"Setting and striving for goals",true,"Inbound communication",2,"Receptive communication",true,1348,,,,,,,,,
5df77306c12a36506b5e95f4,forced_choice,267,348,"Self-reliance",68,"Independence",true,"Sense of duty",66,"Responsibility",true,"Self-reliance",68,"Independence",true,"Sense of duty",66,"Responsibility",true,1288,,,,,,,,,
5df77306c12a36506b5e95f4,forced_choice,268,348,"Proficiencies",51,"Knowledge and skills",true,"Scholastic achievement",88,"Academic performance",true,"Proficiencies",51,"Knowledge and skills",true,"Scholastic achievement",88,"Academic performance",true,1650,,,,,,,,,
5df77306c12a36506b5e95f4,forced_choice,269,348,"Overcoming obstacles",37,"Problem solving",true,"Resourcefulness",27,"Resourcefulness",false,"Resourcefulness",27,"Resourcefulness",false,"Overcoming obstacles",37,"Problem solving",true,2759,,,,,,,,,
5df77306c12a36506b5e95f4,forced_choice,270,348,"Proactive",69,"Initiative",true,"Drive or ambition",54,"Motivation",true,"Proactive",69,"Initiative",true,"Drive or ambition",54,"Motivation",true,1288,,,,,,,,,
5df77306c12a36506b5e95f4,forced_choice,271,348,"Cultural sensitivity",59,"Respect for others",true,"Overcoming obstacles",37,"Problem solving",true,"Overcoming obstacles",37,"Problem solving",true,"Cultural sensitivity",59,"Respect for others",true,1589,,,,,,,,,
5df77306c12a36506b5e95f4,forced_choice,272,348,"Situational awareness",7,"Perception",true,"Scholastic achievement",88,"Academic performance",true,"Situational awareness",7,"Perception",true,"Scholastic achievement",88,"Academic performance",true,1530,,,,,,,,,
5df77306c12a36506b5e95f4,forced_choice,273,348,"Regulating feelings",29,"Managing emotions",true,"Sense of duty",66,"Responsibility",true,"Regulating feelings",29,"Managing emotions",true,"Sense of duty",66,"Responsibility",true,4109,,,,,,,,,
5df77306c12a36506b5e95f4,forced_choice,274,348,"Inbound communication",2,"Receptive communication",true,"Cultural sensitivity",59,"Respect for others",true,"Inbound communication",2,"Receptive communication",true,"Cultural sensitivity",59,"Respect for others",true,2890,,,,,,,,,
5df77306c12a36506b5e95f4,attention_check,279,,,,,,,,,,,,,,,,,,1296,"Respect for others","Respect for others",true,,,,,,
5df77306c12a36506b5e95f4,forced_choice,275,348,"Working for outcomes",45,"Setting and striving for goals",true,"Schedule planning",44,"Time management",true,"Working for outcomes",45,"Setting and striving for goals",true,"Schedule planning",44,"Time management",true,2990,,,,,,,,,
5df77306c12a36506b5e95f4,forced_choice,276,348,"Confidence in groups",13,"Comfort in social situations",true,"Habits / routines",6,"Habits / routines",false,"Habits / routines",6,"Habits / routines",false,"Confidence in groups",13,"Comfort in social situations",true,1782,,,,,,,,,
5df77306c12a36506b5e95f4,forced_choice,277,348,"Creativity and imagination",50,"Creativity and imagination",false,"Scholastic achievement",88,"Academic performance",true,"Creativity and imagination",50,"Creativity and imagination",false,"Scholastic achievement",88,"Academic performance",true,1177,,,,,,,,,
5df77306c12a36506b5e95f4,forced_choice,278,348,"Cognitive control",34,"Managing thoughts",true,"Situational awareness",7,"Perception",true,"Cognitive control",34,"Managing thoughts",true,"Situational awareness",7,"Perception",true,2950,,,,,,,,,
5df77306c12a36506b5e95f4,forced_choice,279,348,"Habits / routines",6,"Habits / routines",false,"Overcoming obstacles",37,"Problem solving",true,"Habits / routines",6,"Habits / routines",false,"Overcoming obstacles",37,"Problem solving",true,814,,,,,,,,,
5df77306c12a36506b5e95f4,forced_choice,280,348,"Self-reliance",68,"Independence",true,"Working for outcomes",45,"Setting and striving for goals",true,"Working for outcomes",45,"Setting and striving for goals",true,"Self-reliance",68,"Independence",true,1872,,,,,,,,,
5df77306c12a36506b5e95f4,forced_choice,281,348,"Concentration",40,"Attention",true,"Drive or ambition",54,"Motivation",true,"Concentration",40,"Attention",true,"Drive or ambition",54,"Motivation",true,1086,,,,,,,,,
5df77306c12a36506b5e95f4,forced_choice,282,348,"Self-reliance",68,"Independence",true,"Reaction to group influence",22,"Response to peer pressure",true,"Self-reliance",68,"Independence",true,"Reaction to group influence",22,"Response to peer pressure",true,855,,,,,,,,,
5df77306c12a36506b5e95f4,forced_choice,283,348,"Overcoming obstacles",37,"Problem solving",true,"Sense of safety",21,"Sense of safety",false,"Overcoming obstacles",37,"Problem solving",true,"Sense of safety",21,"Sense of safety",false,1751,,,,,,,,,
5df77306c12a36506b5e95f4,forced_choice,284,348,"Confidence in groups",13,"Comfort in social situations",true,"Self-awareness",76,"Self-awareness",false,"Confidence in groups",13,"Comfort in social situations",true,"Self-awareness",76,"Self-awareness",false,1084,,,,,,,,,
5df77306c12a36506b5e95f4,forced_choice,285,348,"Sense of safety",21,"Sense of safety",false,"Sense of duty",66,"Responsibility",true,"Sense of duty",66,"Responsibility",true,"Sense of safety",21,"Sense of safety",false,1681,,,,,,,,,
5df77306c12a36506b5e95f4,forced_choice,286,348,"Prospective view",72,"Future outlook",true,"Creativity and imagination",50,"Creativity and imagination",false,"Creativity and imagination",50,"Creativity and imagination",false,"Prospective view",72,"Future outlook",true,1822,,,,,,,,,
5df77306c12a36506b5e95f4,forced_choice,287,348,"Confidence in groups",13,"Comfort in social situations",true,"Psychological balance",84,"Emotional well-being",true,"Psychological balance",84,"Emotional well-being",true,"Confidence in groups",13,"Comfort in social situations",true,1277,,,,,,,,,
5df77306c12a36506b5e95f4,forced_choice,288,348,"Creativity and imagination",50,"Creativity and imagination",false,"Sense of safety",21,"Sense of safety",false,"Creativity and imagination",50,"Creativity and imagination",false,"Sense of safety",21,"Sense of safety",false,1913,,,,,,,,,
5df77306c12a36506b5e95f4,forced_choice,289,348,"Concentration",40,"Attention",true,"Sense of safety",21,"Sense of safety",false,"Concentration",40,"Attention",true,"Sense of safety",21,"Sense of safety",false,2638,,,,,,,,,
5df77306c12a36506b5e95f4,forced_choice,290,348,"Working for outcomes",45,"Setting and striving for goals",true,"Prospective view",72,"Future outlook",true,"Working for outcomes",45,"Setting and striving for goals",true,"Prospective view",72,"Future outlook",true,1177,,,,,,,,,
5df77306c12a36506b5e95f4,forced_choice,291,348,"Concentration",40,"Attention",true,"Schedule planning",44,"Time management",true,"Concentration",40,"Attention",true,"Schedule planning",44,"Time management",true,1288,,,,,,,,,
5df77306c12a36506b5e95f4,forced_choice,292,348,"Family bonds",10,"Relationships with parents",true,"Habits / routines",6,"Habits / routines",false,"Habits / routines",6,"Habits / routines",false,"Family bonds",10,"Relationships with parents",true,1208,,,,,,,,,
5df77306c12a36506b5e95f4,forced_choice,293,348,"Scholastic achievement",88,"Academic performance",true,"Proactive",69,"Initiative",true,"Proactive",69,"Initiative",true,"Scholastic achievement",88,"Academic performance",true,1077,,,,,,,,,
5df77306c12a36506b5e95f4,forced_choice,294,348,"Drive or ambition",54,"Motivation",true,"Prospective view",72,"Future outlook",true,"Prospective view",72,"Future outlook",true,"Drive or ambition",54,"Motivation",true,1237,,,,,,,,,
5df77306c12a36506b5e95f4,forced_choice,295,348,"Regulating feelings",29,"Managing emotions",true,"Situational awareness",7,"Perception",true,"Situational awareness",7,"Perception",true,"Regulating feelings",29,"Managing emotions",true,4018,,,,,,,,,
5df77306c12a36506b5e95f4,forced_choice,296,348,"Situational awareness",7,"Perception",true,"Overcoming obstacles",37,"Problem solving",true,"Overcoming obstacles",37,"Problem solving",true,"Situational awareness",7,"Perception",true,2023,,,,,,,,,
5df77306c12a36506b5e95f4,forced_choice,297,348,"Proficiencies",51,"Knowledge and skills",true,"Cognitive control",34,"Managing thoughts",true,"Proficiencies",51,"Knowledge and skills",true,"Cognitive control",34,"Managing thoughts",true,1237,,,,,,,,,
5df77306c12a36506b5e95f4,forced_choice,298,348,"Self-awareness",76,"Self-awareness",false,"Sense of duty",66,"Responsibility",true,"Self-awareness",76,"Self-awareness",false,"Sense of duty",66,"Responsibility",true,1148,,,,,,,,,
5df77306c12a36506b5e95f4,forced_choice,299,348,"Schedule planning",44,"Time management",true,"Habits / routines",6,"Habits / routines",false,"Habits / routines",6,"Habits / routines",false,"Schedule planning",44,"Time management",true,1227,,,,,,,,,
5df77306c12a36506b5e95f4,forced_choice,300,348,"Proficiencies",51,"Knowledge and skills",true,"Habits / routines",6,"Habits / routines",false,"Proficiencies",51,"Knowledge and skills",true,"Habits / routines",6,"Habits / routines",false,2516,,,,,,,,,
5df77306c12a36506b5e95f4,forced_choice,301,348,"Sense of safety",21,"Sense of safety",false,"Situational awareness",7,"Perception",true,"Situational awareness",7,"Perception",true,"Sense of safety",21,"Sense of safety",false,1559,,,,,,,,,
5df77306c12a36506b5e95f4,forced_choice,302,348,"Working for outcomes",45,"Setting and striving for goals",true,"Sense of duty",66,"Responsibility",true,"Working for outcomes",45,"Setting and striving for goals",true,"Sense of duty",66,"Responsibility",true,1117,,,,,,,,,
5df77306c12a36506b5e95f4,forced_choice,303,348,"Cognitive control",34,"Managing thoughts",true,"Self-reliance",68,"Independence",true,"Cognitive control",34,"Managing thoughts",true,"Self-reliance",68,"Independence",true,2124,,,,,,,,,
5df77306c12a36506b5e95f4,forced_choice,304,348,"Resourcefulness",27,"Resourcefulness",false,"Scholastic achievement",88,"Academic performance",true,"Resourcefulness",27,"Resourcefulness",false,"Scholastic achievement",88,"Academic performance",true,1116,,,,,,,,,
5df77306c12a36506b5e95f4,forced_choice,305,348,"Creativity and imagination",50,"Creativity and imagination",false,"Psychological balance",84,"Emotional well-being",true,"Creativity and imagination",50,"Creativity and imagination",false,"Psychological balance",84,"Emotional well-being",true,1127,,,,,,,,,
5df77306c12a36506b5e95f4,forced_choice,306,348,"Concentration",40,"Attention",true,"Family bonds",10,"Relationships with parents",true,"Concentration",40,"Attention",true,"Family bonds",10,"Relationships with parents",true,1076,,,,,,,,,
5df77306c12a36506b5e95f4,forced_choice,307,348,"Cognitive control",34,"Managing thoughts",true,"Creativity and imagination",50,"Creativity and imagination",false,"Cognitive control",34,"Managing thoughts",true,"Creativity and imagination",50,"Creativity and imagination",false,1610,,,,,,,,,
5df77306c12a36506b5e95f4,forced_choice,308,348,"Fairness",60,"Fairness",false,"Regulating feelings",29,"Managing emotions",true,"Regulating feelings",29,"Managing emotions",true,"Fairness",60,"Fairness",false,1499,,,,,,,,,
5df77306c12a36506b5e95f4,forced_choice,309,348,"Concentration",40,"Attention",true,"Prospective view",72,"Future outlook",true,"Concentration",40,"Attention",true,"Prospective view",72,"Future outlook",true,1479,,,,,,,,,
5df77306c12a36506b5e95f4,forced_choice,310,348,"Habits / routines",6,"Habits / routines",false,"Sense of duty",66,"Responsibility",true,"Habits / routines",6,"Habits / routines",false,"Sense of duty",66,"Responsibility",true,1016,,,,,,,,,
5df77306c12a36506b5e95f4,forced_choice,311,348,"Prospective view",72,"Future outlook",true,"Regulating feelings",29,"Managing emotions",true,"Regulating feelings",29,"Managing emotions",true,"Prospective view",72,"Future outlook",true,2074,,,,,,,,,
5df77306c12a36506b5e95f4,forced_choice,312,348,"Regulating feelings",29,"Managing emotions",true,"Overcoming obstacles",37,"Problem solving",true,"Overcoming obstacles",37,"Problem solving",true,"Regulating feelings",29,"Managing emotions",true,1097,,,,,,,,,
5df77306c12a36506b5e95f4,forced_choice,313,348,"Sense of duty",66,"Responsibility",true,"Inbound communication",2,"Receptive communication",true,"Inbound communication",2,"Receptive communication",true,"Sense of duty",66,"Responsibility",true,1198,,,,,,,,,
5df77306c12a36506b5e95f4,forced_choice,314,348,"Cognitive control",34,"Managing thoughts",true,"Proactive",69,"Initiative",true,"Proactive",69,"Initiative",true,"Cognitive control",34,"Managing thoughts",true,1620,,,,,,,,,
5df77306c12a36506b5e95f4,forced_choice,315,348,"Cognitive control",34,"Managing thoughts",true,"Drive or ambition",54,"Motivation",true,"Cognitive control",34,"Managing thoughts",true,"Drive or ambition",54,"Motivation",true,1297,,,,,,,,,
5df77306c12a36506b5e95f4,forced_choice,316,348,"Reaction to group influence",22,"Response to peer pressure",true,"Cultural sensitivity",59,"Respect for others",true,"Reaction to group influence",22,"Response to peer pressure",true,"Cultural sensitivity",59,"Respect for others",true,2264,,,,,,,,,
5df77306c12a36506b5e95f4,forced_choice,317,348,"Overcoming obstacles",37,"Problem solving",true,"Schedule planning",44,"Time management",true,"Overcoming obstacles",37,"Problem solving",true,"Schedule planning",44,"Time management",true,1569,,,,,,,,,
5df77306c12a36506b5e95f4,forced_choice,318,348,"Sense of duty",66,"Responsibility",true,"Reaction to group influence",22,"Response to peer pressure",true,"Reaction to group influence",22,"Response to peer pressure",true,"Sense of duty",66,"Responsibility",true,1248,,,,,,,,,
5df77306c12a36506b5e95f4,forced_choice,319,348,"Psychological balance",84,"Emotional well-being",true,"Family bonds",10,"Relationships with parents",true,"Psychological balance",84,"Emotional well-being",true,"Family bonds",10,"Relationships with parents",true,1137,,,,,,,,,
5df77306c12a36506b5e95f4,forced_choice,320,348,"Overcoming obstacles",37,"Problem solving",true,"Creativity and imagination",50,"Creativity and imagination",false,"Creativity and imagination",50,"Creativity and imagination",false,"Overcoming obstacles",37,"Problem solving",true,1641,,,,,,,,,
5df77306c12a36506b5e95f4,forced_choice,321,348,"Sense of duty",66,"Responsibility",true,"Situational awareness",7,"Perception",true,"Situational awareness",7,"Perception",true,"Sense of duty",66,"Responsibility",true,2305,,,,,,,,,
5df77306c12a36506b5e95f4,forced_choice,322,348,"Drive or ambition",54,"Motivation",true,"Resourcefulness",27,"Resourcefulness",false,"Resourcefulness",27,"Resourcefulness",false,"Drive or ambition",54,"Motivation",true,1126,,,,,,,,,
5df77306c12a36506b5e95f4,forced_choice,323,348,"Psychological balance",84,"Emotional well-being",true,"Drive or ambition",54,"Motivation",true,"Psychological balance",84,"Emotional well-being",true,"Drive or ambition",54,"Motivation",true,1761,,,,,,,,,
5df77306c12a36506b5e95f4,forced_choice,324,348,"Proactive",69,"Initiative",true,"Proficiencies",51,"Knowledge and skills",true,"Proactive",69,"Initiative",true,"Proficiencies",51,"Knowledge and skills",true,1651,,,,,,,,,
