user_id,task,trial_index,subset_index,left_term,left_construct_id,left_canonical,left_is_synonym,right_term,right_construct_id,right_canonical,right_is_synonym,chosen_term,chosen_construct_id,chosen_canonical,chosen_is_synonym,unchosen_term,unchosen_construct_id,unchosen_canonical,unchosen_is_synonym,response_time,correct_word,chosen_word,passed,grade_levels,special_needs,school_type,experience,class_size,country
668d47c713ff36650d859118,demographics,,,,,,,,,,,,,,,,,,,,,,,"primary","no","public","2-5",">25","South Africa"
668d47c713ff36650d859118,forced_choice,0,370,"Task initiation",46,"Task initiation",false,"Assisting others",63,"Helpfulness",true,"Task initiation",46,"Task initiation",false,"Assisting others",63,"Helpfulness",true,10056,,,,,,,,,
668d47c713ff36650d859118,forced_choice,1,370,"Inbound communication",2,"Receptive communication",true,"Directness",70,"Assertiveness",true,"Inbound communication",2,"Receptive communication",true,"Directness",70,"Assertiveness",true,9587,,,,,,,,,
668d47c713ff36650d859118,forced_choice,2,370,"Inbound communication",2,"Receptive communication",true,"Courteous",61,"Politeness",true,"Inbound communication",2,"Receptive communication",true,"Courteous",61,"Politeness",true,3361,,,,,,,,,
668d47c713ff36650d859118,forced_choice,3,370,"Academic performance",88,"Academic performance",false,"Independence",68,"Independence",false,"Independence",68,"Independence",false,"Academic performance",88,"Academic performance",false,2727,,,,,,,,,
668d47c713ff36650d859118,forced_choice,4,370,"Self-awareness",76,"Self-awareness",false,"Self-starting",69,"Initiative",true,"Self-starting",69,"Initiative",true,"Self-awareness",76,"Self-awareness",false,4888,,,,,,,,,
668d47c713ff36650d859118,forced_choice,5,370,"Belief in oneself",80,"Self-confidence",true,"Situational awareness",7,"Perception",true,"Situational awareness",7,"Perception",true,"Belief in oneself",80,"Self-confidence",true,2723,,,,,,,,,
668d47c713ff36650d859118,forced_choice,6,370,"Task initiation",46,"Task initiation",false,"Relationships with teachers",11,"Relationships with teachers",false,"Task initiation",46,"Task initiation",false,"Relationships with teachers",11,"Relationships with teachers",false,2402,,,,,,,,,
668d47c713ff36650d859118,forced_choice,7,370,"Belief in oneself",80,"Self-confidence",true,"Courteous",61,"Politeness",true,"Belief in oneself",80,"Self-confidence",true,"Courteous",61,"Politeness",true,1982,,,,,,,,,
668d47c713ff36650d859118,forced_choice,8,370,"Frustration tolerance",62,"Patience",true,"Exhaustion",85,"Sleep and fatigue",true,"Frustration tolerance",62,"Patience",true,"Exhaustion",85,"Sleep and fatigue",true,4579,,,,,,,,,
668d47c713ff36650d859118,forced_choice,9,370,"Working for outcomes",45,"Setting and striving for goals",true,"Task initiation",46,"Task initiation",false,"Task initiation",46,"Task initiation",false,"Working for outcomes",45,"Setting and striving for goals",true,2926,,,,,,,,,
668d47c713ff36650d859118,forced_choice,10,370,"Text comprehension",52,"Reading",true,"Independence",68,"Independence",false,"Text comprehension",52,"Reading",true,"Independence",68,"Independence",false,1875,,,,,,,,,
668d47c713ff36650d859118,forced_choice,11,370,"Assisting others",63,"Helpfulness",true,"Group interaction",15,"Social activity",true,"Group interaction",15,"Social activity",true,"Assisting others",63,"Helpfulness",true,1928,,,,,,,,,
668d47c713ff36650d859118,forced_choice,12,370,"Inbound communication",2,"Receptive communication",true,"Text comprehension",52,"Reading",true,"Text comprehension",52,"Reading",true,"Inbound communication",2,"Receptive communication",true,2903,,,,,,,,,
668d47c713ff36650d859118,forced_choice,13,370,"Task initiation",46,"Task initiation",false,"Self-starting",69,"Initiative",true,"Task initiation",46,"Task initiation",false,"Self-starting",69,"Initiative",true,2849,,,,,,,,,
668d47c713ff36650d859118,forced_choice,14,370,"Drive or ambition",54,"Motivation",true,"Regulating feelings",29,"Managing emotions",true,"Regulating feelings",29,"Managing emotions",true,"Drive or ambition",54,"Motivation",true,12874,,,,,,,,,
668d47c713ff36650d859118,forced_choice,15,370,"Drive or ambition",54,"Motivation",true,"Group interaction",15,"Social activity",true,"Group interaction",15,"Social activity",true,"Drive or ambition",54,"Motivation",true,6194,,,,,,,,,
668d47c713ff36650d859118,forced_choice,16,370,"Text comprehension",52,"Reading",true,"Courteous",61,"Politeness",true,"Text comprehension",52,"Reading",true,"Courteous",61,"Politeness",true,2248,,,,,,,,,
668d47c713ff36650d859118,forced_choice,17,370,"Assisting others",63,"Helpfulness",true,"Compassion",64,"Kindness and caring",true,"Compassion",64,"Kindness and caring",true,"Assisting others",63,"Helpfulness",true,3597,,,,,,,,,
668d47c713ff36650d859118,forced_choice,18,370,"Exhaustion",85,"Sleep and fatigue",true,"Task initiation",46,"Task initiation",false,"Task initiation",46,"Task initiation",false,"Exhaustion",85,"Sleep and fatigue",true,1430,,,,,,,,,
668d47c713ff36650d859118,forced_choice,19,370,"Self-advocacy",81,"Self-advocacy",false,"Assisting others",63,"Helpfulness",true,"Self-advocacy",81,"Self-advocacy",false,"Assisting others",63,"Helpfulness",true,2766,,,,,,,,,
668d47c713ff36650d859118,forced_choice,20,370,"Play",19,"Play",false,"Courteous",61,"Politeness",true,"Play",19,"Play",false,"Courteous",61,"Politeness",true,1695,,,,,,,,,
668d47c713ff36650d859118,forced_choice,21,370,"Drug intake",87,"Substance use",true,"Play",19,"Play",false,"Play",19,"Play",false,"Drug intake",87,"Substance use",true,1824,,,,,,,,,
668d47c713ff36650d859118,forced_choice,22,370,"Self-advocacy",81,"Self-advocacy",false,"Frustration tolerance",62,"Patience",true,"Self-advocacy",81,"Self-advocacy",false,"Frustration tolerance",62,"Patience",true,3223,,,,,,,,,
668d47c713ff36650d859118,forced_choice,23,370,"Relationships with teachers",11,"Relationships with teachers",false,"Exhaustion",85,"Sleep and fatigue",true,"Relationships with teachers",11,"Relationships with teachers",false,"Exhaustion",85,"Sleep and fatigue",true,3682,,,,,,,,,
668d47c713ff36650d859118,forced_choice,24,370,"Independence",68,"Independence",false,"Self-advocacy",81,"Self-advocacy",false,"Independence",68,"Independence",false,"Self-advocacy",81,"Self-advocacy",false,2048,,,,,,,,,
668d47c713ff36650d859118,forced_choice,25,370,"Compassion",64,"Kindness and caring",true,"Penmanship",53,"Writing",true,"Compassion",64,"Kindness and caring",true,"Penmanship",53,"Writing",true,2107,,,,,,,,,
668d47c713ff36650d859118,forced_choice,26,370,"Situational awareness",7,"Perception",true,"Relationships with teachers",11,"Relationships with teachers",false,"Situational awareness",7,"Perception",true,"Relationships with teachers",11,"Relationships with teachers",false,2258,,,,,,,,,
668d47c713ff36650d859118,forced_choice,27,370,"Self-awareness",76,"Self-awareness",false,"Task initiation",46,"Task initiation",false,"Task initiation",46,"Task initiation",false,"Self-awareness",76,"Self-awareness",false,2488,,,,,,,,,
668d47c713ff36650d859118,forced_choice,28,370,"Directness",70,"Assertiveness",true,"Drive or ambition",54,"Motivation",true,"Drive or ambition",54,"Motivation",true,"Directness",70,"Assertiveness",true,2503,,,,,,,,,
668d47c713ff36650d859118,forced_choice,29,370,"Group interaction",15,"Social activity",true,"Relationships with teachers",11,"Relationships with teachers",false,"Group interaction",15,"Social activity",true,"Relationships with teachers",11,"Relationships with teachers",false,2392,,,,,,,,,
668d47c713ff36650d859118,forced_choice,30,370,"Self-advocacy",81,"Self-advocacy",false,"Directness",70,"Assertiveness",true,"Self-advocacy",81,"Self-advocacy",false,"Directness",70,"Assertiveness",true,1884,,,,,,,,,
668d47c713ff36650d859118,forced_choice,31,370,"Regulating feelings",29,"Managing emotions",true,"Independence",68,"Independence",false,"Regulating feelings",29,"Managing emotions",true,"Independence",68,"Independence",false,2382,,,,,,,,,
668d47c713ff36650d859118,forced_choice,32,370,"Drive or ambition",54,"Motivation",true,"Academic performance",88,"Academic performance",false,"Drive or ambition",54,"Motivation",true,"Academic performance",88,"Academic performance",false,2964,,,,,,,,,
668d47c713ff36650d859118,forced_choice,33,370,"Drive or ambition",54,"Motivation",true,"Inbound communication",2,"Receptive communication",true,"Inbound communication",2,"Receptive communication",true,"Drive or ambition",54,"Motivation",true,3394,,,,,,,,,
668d47c713ff36650d859118,forced_choice,34,370,"Inbound communication",2,"Receptive communication",true,"Self-advocacy",81,"Self-advocacy",false,"Inbound communication",2,"Receptive communication",true,"Self-advocacy",81,"Self-advocacy",false,3065,,,,,,,,,
668d47c713ff36650d859118,forced_choice,35,370,"Penmanship",53,"Writing",true,"Belief in oneself",80,"Self-confidence",true,"Belief in oneself",80,"Self-confidence",true,"Penmanship",53,"Writing",true,1371,,,,,,,,,
668d47c713ff36650d859118,forced_choice,36,370,"Self-starting",69,"Initiative",true,"Compassion",64,"Kindness and caring",true,"Compassion",64,"Kindness and caring",true,"Self-starting",69,"Initiative",true,2298,,,,,,,,,
668d47c713ff36650d859118,forced_choice,37,370,"Self-awareness",76,"Self-awareness",false,"Play",19,"Play",false,"Self-awareness",76,"Self-awareness",false,"Play",19,"Play",false,10245,,,,,,,,,
668d47c713ff36650d859118,forced_choice,38,370,"Regulating feelings",29,"Managing emotions",true,"Perseverance",71,"Perseverance",false,"Regulating feelings",29,"Managing emotions",true,"Perseverance",71,"Perseverance",false,2108,,,,,,,,,
668d47c713ff36650d859118,forced_choice,39,370,"Self-advocacy",81,"Self-advocacy",false,"Text comprehension",52,"Reading",true,"Text comprehension",52,"Reading",true,"Self-advocacy",81,"Self-advocacy",false,1474,,,,,,,,,
668d47c713ff36650d859118,forced_choice,40,370,"Drive or ambition",54,"Motivation",true,"Self-awareness",76,"Self-awareness",false,"Self-awareness",76,"Self-awareness",false,"Drive or ambition",54,"Motivation",true,1949,,,,,,,,,
668d47c713ff36650d859118,forced_choice,41,370,"Academic performance",88,"Academic performance",false,"Inbound communication",2,"Receptive communication",true,"Inbound communication",2,"Receptive communication",true,"Academic performance",88,"Academic performance",false,3967,,,,,,,,,
668d47c713ff36650d859118,forced_choice,42,370,"Self-awareness",76,"Self-awareness",false,"Exhaustion",85,"Sleep and fatigue",true,"Self-awareness",76,"Self-awareness",false,"Exhaustion",85,"Sleep and fatigue",true,1487,,,,,,,,,
668d47c713ff36650d859118,forced_choice,43,370,"Perseverance",71,"Perseverance",false,"Inbound communication",2,"Receptive communication",true,"Perseverance",71,"Perseverance",false,"Inbound communication",2,"Receptive communication",true,1855,,,,,,,,,
668d47c713ff36650d859118,forced_choice,44,370,"Perseverance",71,"Perseverance",false,"Text comprehension",52,"Reading",true,"Text comprehension",52,"Reading",true,"Perseverance",71,"Perseverance",false,1158,,,,,,,,,
668d47c713ff36650d859118,forced_choice,45,370,"Inbound communication",2,"Receptive communication",true,"Assisting others",63,"Helpfulness",true,"Inbound communication",2,"Receptive communication",true,"Assisting others",63,"Helpfulness",true,1154,,,,,,,,,
668d47c713ff36650d859118,forced_choice,46,370,"Play",19,"Play",false,"Self-starting",69,"Initiative",true,"Self-starting",69,"Initiative",true,"Play",19,"Play",false,1354,,,,,,,,,
668d47c713ff36650d859118,forced_choice,47,370,"Play",19,"Play",false,"Resilience",28,"Resilience",false,"Resilience",28,"Resilience",false,"Play",19,"Play",false,1698,,,,,,,,,
668d47c713ff36650d859118,forced_choice,48,370,"Resilience",28,"Resilience",false,"Self-advocacy",81,"Self-advocacy",false,"Resilience",28,"Resilience",false,"Self-advocacy",81,"Self-advocacy",false,1288,,,,,,,,,
668d47c713ff36650d859118,forced_choice,49,370,"Belief in oneself",80,"Self-confidence",true,"Compassion",64,"Kindness and caring",true,"Belief in oneself",80,"Self-confidence",true,"Compassion",64,"Kindness and caring",true,1668,,,,,,,,,
668d47c713ff36650d859118,forced_choice,50,370,"Self-advocacy",81,"Self-advocacy",false,"Courteous",61,"Politeness",true,"Self-advocacy",81,"Self-advocacy",false,"Courteous",61,"Politeness",true,1451,,,,,,,,,
668d47c713ff36650d859118,forced_choice,51,370,"Exhaustion",85,"Sleep and fatigue",true,"Courteous",61,"Politeness",true,"Courteous",61,"Politeness",true,"Exhaustion",85,"Sleep and fatigue",true,2077,,,,,,,,,
668d47c713ff36650d859118,forced_choice,52,370,"Assisting others",63,"Helpfulness",true,"Courteous",61,"Politeness",true,"Courteous",61,"Politeness",true,"Assisting others",63,"Helpfulness",true,4050,,,,,,,,,
668d47c713ff36650d859118,forced_choice,53,370,"Self-advocacy",81,"Self-advocacy",false,"Group interaction",15,"Social activity",true,"Group interaction",15,"Social activity",true,"Self-advocacy",81,"Self-advocacy",false,1674,,,,,,,,,
668d47c713ff36650d859118,forced_choice,54,370,"Academic performance",88,"Academic performance",false,"Assisting others",63,"Helpfulness",true,"Academic performance",88,"Academic performance",false,"Assisting others",63,"Helpfulness",true,4238,,,,,,,,,
668d47c713ff36650d859118,attention_check,55,,,,,,,,,,,,,,,,,,4240,"Social skills","Social skills",true,,,,,,
668d47c713ff36650d859118,forced_choice,55,370,"Task initiation",46,"Task initiation",false,"Perseverance",71,"Perseverance",false,"Perseverance",71,"Perseverance",false,"Task initiation",46,"Task initiation",false,3125,,,,,,,,,
668d47c713ff36650d859118,forced_choice,56,370,"Penmanship",53,"Writing",true,"Self-awareness",76,"Self-awareness",false,"Self-awareness",76,"Self-awareness",false,"Penmanship",53,"Writing",true,1263,,,,,,,,,
668d47c713ff36650d859118,forced_choice,57,370,"Drug intake",87,"Substance use",true,"Situational awareness",7,"Perception",true,"Situational awareness",7,"Perception",true,"Drug intake",87,"Substance use",true,1849,,,,,,,,,
668d47c713ff36650d859118,forced_choice,58,370,"Penmanship",53,"Writing",true,"Inbound communication",2,"Receptive communication",true,"Inbound communication",2,"Receptive communication",true,"Penmanship",53,"Writing",true,1455,,,,,,,,,
668d47c713ff36650d859118,forced_choice,59,370,"Play",19,"Play",false,"Independence",68,"Independence",false,"Independence",68,"Independence",false,"Play",19,"Play",false,1466,,,,,,,,,
668d47c713ff36650d859118,forced_choice,60,370,"Working for outcomes",45,"Setting and striving for goals",true,"Academic performance",88,"Academic performance",false,"Working for outcomes",45,"Setting and striving for goals",true,"Academic performance",88,"Academic performance",false,4406,,,,,,,,,
668d47c713ff36650d859118,forced_choice,61,370,"Directness",70,"Assertiveness",true,"Frustration tolerance",62,"Patience",true,"Frustration tolerance",62,"Patience",true,"Directness",70,"Assertiveness",true,4225,,,,,,,,,
668d47c713ff36650d859118,forced_choice,62,370,"Independence",68,"Independence",false,"Task initiation",46,"Task initiation",false,"Independence",68,"Independence",false,"Task initiation",46,"Task initiation",false,1778,,,,,,,,,
668d47c713ff36650d859118,forced_choice,63,370,"Perseverance",71,"Perseverance",false,"Group interaction",15,"Social activity",true,"Perseverance",71,"Perseverance",false,"Group interaction",15,"Social activity",true,2447,,,,,,,,,
668d47c713ff36650d859118,forced_choice,64,370,"Working for outcomes",45,"Setting and striving for goals",true,"Drive or ambition",54,"Motivation",true,"Drive or ambition",54,"Motivation",true,"Working for outcomes",45,"Setting and striving for goals",true,2712,,,,,,,,,
668d47c713ff36650d859118,forced_choice,65,370,"Inbound communication",2,"Receptive communication",true,"Task initiation",46,"Task initiation",false,"Inbound communication",2,"Receptive communication",true,"Task initiation",46,"Task initiation",false,1454,,,,,,,,,
668d47c713ff36650d859118,forced_choice,66,370,"Task initiation",46,"Task initiation",false,"Frustration tolerance",62,"Patience",true,"Task initiation",46,"Task initiation",false,"Frustration tolerance",62,"Patience",true,1619,,,,,,,,,
668d47c713ff36650d859118,forced_choice,67,370,"Situational awareness",7,"Perception",true,"Play",19,"Play",false,"Situational awareness",7,"Perception",true,"Play",19,"Play",false,1516,,,,,,,,,
668d47c713ff36650d859118,forced_choice,68,370,"Penmanship",53,"Writing",true,"Courteous",61,"Politeness",true,"Courteous",61,"Politeness",true,"Penmanship",53,"Writing",true,1280,,,,,,,,,
668d47c713ff36650d859118,forced_choice,69,370,"Belief in oneself",80,"Self-confidence",true,"Inbound communication",2,"Receptive communication",true,"Inbound communication",2,"Receptive communication",true,"Belief in oneself",80,"Self-confidence",true,1867,,,,,,,,,
668d47c713ff36650d859118,forced_choice,70,370,"Group interaction",15,"Social activity",true,"Task initiation",46,"Task initiation",false,"Task initiation",46,"Task initiation",false,"Group interaction",15,"Social activity",true,3148,,,,,,,,,
668d47c713ff36650d859118,forced_choice,71,370,"Play",19,"Play",false,"Exhaustion",85,"Sleep and fatigue",true,"Play",19,"Play",false,"Exhaustion",85,"Sleep and fatigue",true,1752,,,,,,,,,
668d47c713ff36650d859118,forced_choice,72,370,"Relationships with teachers",11,"Relationships with teachers",false,"Inbound communication",2,"Receptive communication",true,"Inbound communication",2,"Receptive communication",true,"Relationships with teachers",11,"Relationships with teachers",false,1421,,,,,,,,,
668d47c713ff36650d859118,forced_choice,73,370,"Exhaustion",85,"Sleep and fatigue",true,"Directness",70,"Assertiveness",true,"Directness",70,"Assertiveness",true,"Exhaustion",85,"Sleep and fatigue",true,1952,,,,,,,,,
668d47c713ff36650d859118,forced_choice,74,370,"Play",19,"Play",false,"Academic performance",88,"Academic performance",false,"Play",19,"Play",false,"Academic performance",88,"Academic performance",false,1420,,,,,,,,,
668d47c713ff36650d859118,forced_choice,75,370,"Perseverance",71,"Perseverance",false,"Self-starting",69,"Initiative",true,"Perseverance",71,"Perseverance",false,"Self-starting",69,"Initiative",true,1409,,,,,,,,,
668d47c713ff36650d859118,forced_choice,76,370,"Task initiation",46,"Task initiation",false,"Belief in oneself",80,"Self-confidence",true,"Task initiation",46,"Task initiation",false,"Belief in oneself",80,"Self-confidence",true,2101,,,,,,,,,
668d47c713ff36650d859118,forced_choice,77,370,"Belief in oneself",80,"Self-confidence",true,"Resilience",28,"Resilience",false,"Resilience",28,"Resilience",false,"Belief in oneself",80,"Self-confidence",true,1638,,,,,,,,,
668d47c713ff36650d859118,forced_choice,78,370,"Drug intake",87,"Substance use",true,"Self-starting",69,"Initiative",true,"Self-starting",69,"Initiative",true,"Drug intake",87,"Substance use",true,1595,,,,,,,,,
668d47c713ff36650d859118,forced_choice,79,370,"Exhaustion",85,"Sleep and fatigue",true,"Text comprehension",52,"Reading",true,"Text comprehension",52,"Reading",true,"Exhaustion",85,"Sleep and fatigue",true,1271,,,,,,,,,
668d47c713ff36650d859118,forced_choice,80,370,"Working for outcomes",45,"Setting and striving for goals",true,"Compassion",64,"Kindness and caring",true,"Working for outcomes",45,"Setting and striving for goals",true,"Compassion",64,"Kindness and caring",true,2098,,,,,,,,,
668d47c713ff36650d859118,forced_choice,81,370,"Regulating feelings",29,"Managing emotions",true,"Drug intake",87,"Substance use",true,"Regulating feelings",29,"Managing emotions",true,"Drug intake",87,"Substance use",true,1641,,,,,,,,,
668d47c713ff36650d859118,forced_choice,82,370,"Frustration tolerance",62,"Patience",true,"Academic performance",88,"Academic performance",false,"Academic performance",88,"Academic performance",false,"Frustration tolerance",62,"Patience",true,2053,,,,,,,,,
668d47c713ff36650d859118,forced_choice,83,370,"Independence",68,"Independence",false,"Inbound communication",2,"Receptive communication",true,"Independence",68,"Independence",false,"Inbound communication",2,"Receptive communication",true,906,,,,,,,,,
668d47c713ff36650d859118,forced_choice,84,370,"Regulating feelings",29,"Managing emotions",true,"Academic performance",88,"Academic performance",false,"Regulating feelings",29,"Managing emotions",true,"Academic performance",88,"Academic performance",false,2199,,,,,,,,,
668d47c713ff36650d859118,forced_choice,85,370,"Penmanship",53,"Writing",true,"Academic performance",88,"Academic performance",false,"Academic performance",88,"Academic performance",false,"Penmanship",53,"Writing",true,1171,,,,,,,,,
668d47c713ff36650d859118,forced_choice,86,370,"Compassion",64,"Kindness and caring",true,"Drug intake",87,"Substance use",true,"Compassion",64,"Kindness and caring",true,"Drug intake",87,"Substance use",true,1038,,,,,,,,,
668d47c713ff36650d859118,forced_choice,87,370,"Regulating feelings",29,"Managing emotions",true,"Frustration tolerance",62,"Patience",true,"Regulating feelings",29,"Managing emotions",true,"Frustration tolerance",62,"Patience",true,2482,,,,,,,,,
668d47c713ff36650d859118,forced_choice,88,370,"Exhaustion",85,"Sleep and fatigue",true,"Resilience",28,"Resilience",false,"Resilience",28,"Resilience",false,"Exhaustion",85,"Sleep and fatigue",true,2219,,,,,,,,,
668d47c713ff36650d859118,forced_choice,89,370,"Academic performance",88,"Academic performance",false,"Group interaction",15,"Social activity",true,"Group interaction",15,"Social activity",true,"Academic performance",88,"Academic performance",false,1688,,,,,,,,,
668d47c713ff36650d859118,forced_choice,90,370,"Drug intake",87,"Substance use",true,"Courteous",61,"Politeness",true,"Courteous",61,"Politeness",true,"Drug intake",87,"Substance use",true,1575,,,,,,,,,
668d47c713ff36650d859118,forced_choice,91,370,"Academic performance",88,"Academic performance",false,"Perseverance",71,"Perseverance",false,"Perseverance",71,"Perseverance",false,"Academic performance",88,"Academic performance",false,1233,,,,,,,,,
668d47c713ff36650d859118,forced_choice,92,370,"Belief in oneself",80,"Self-confidence",true,"Academic performance",88,"Academic performance",false,"Belief in oneself",80,"Self-confidence",true,"Academic performance",88,"Academic performance",false,1680,,,,,,,,,
668d47c713ff36650d859118,forced_choice,93,370,"Play",19,"Play",false,"Belief in oneself",80,"Self-confidence",true,"Belief in oneself",80,"Self-confidence",true,"Play",19,"Play",false,1821,,,,,,,,,
668d47c713ff36650d859118,forced_choice,94,370,"Working for outcomes",45,"Setting and striving for goals",true,"Play",19,"Play",false,"Play",19,"Play",false,"Working for outcomes",45,"Setting and striving for goals",true,2185,,,,,,,,,
668d47c713ff36650d859118,forced_choice,95,370,"Task initiation",46,"Task initiation",false,"Regulating feelings",29,"Managing emotions",true,"Regulating feelings",29,"Managing emotions",true,"Task initiation",46,"Task initiation",false,2783,,,,,,,,,
668d47c713ff36650d859118,forced_choice,96,370,"Exhaustion",85,"Sleep and fatigue",true,"Perseverance",71,"Perseverance",false,"Perseverance",71,"Perseverance",false,"Exhaustion",85,"Sleep and fatigue",true,1288,,,,,,,,,
668d47c713ff36650d859118,forced_choice,97,370,"Assisting others",63,"Helpfulness",true,"Independence",68,"Independence",false,"Independence",68,"Independence",false,"Assisting others",63,"Helpfulness",true,1258,,,,,,,,,
668d47c713ff36650d859118,forced_choice,98,370,"Self-advocacy",81,"Self-advocacy",false,"Penmanship",53,"Writing",true,"Self-advocacy",81,"Self-advocacy",false,"Penmanship",53,"Writing",true,1351,,,,,,,,,
668d47c713ff36650d859118,forced_choice,99,370,"Situational awareness",7,"Perception",true,"Regulating feelings",29,"Managing emotions",true,"Situational awareness",7,"Perception",true,"Regulating feelings",29,"Managing emotions",true,1225,,,,,,,,,
668d47c713ff36650d859118,forced_choice,100,370,"Situational awareness",7,"Perception",true,"Independence",68,"Independence",false,"Independence",68,"Independence",false,"Situational awareness",7,"Perception",true,7165,,,,,,,,,
668d47c713ff36650d859118,forced_choice,101,370,"Assisting others",63,"Helpfulness",true,"Drive or ambition",54,"Motivation",true,"Drive or ambition",54,"Motivation",true,"Assisting others",63,"Helpfulness",true,15129,,,,,,,,,
668d47c713ff36650d859118,forced_choice,102,370,"Self-advocacy",81,"Self-advocacy",false,"Compassion",64,"Kindness and caring",true,"Self-advocacy",81,"Self-advocacy",false,"Compassion",64,"Kindness and caring",true,3226,,,,,,,,,
668d47c713ff36650d859118,forced_choice,103,370,"Penmanship",53,"Writing",true,"Frustration tolerance",62,"Patience",true,"Frustration tolerance",62,"Patience",true,"Penmanship",53,"Writing",true,1511,,,,,,,,,
668d47c713ff36650d859118,forced_choice,104,370,"Directness",70,"Assertiveness",true,"Belief in oneself",80,"Self-confidence",true,"Belief in oneself",80,"Self-confidence",true,"Directness",70,"Assertiveness",true,2094,,,,,,,,,
668d47c713ff36650d859118,forced_choice,105,370,"Belief in oneself",80,"Self-confidence",true,"Independence",68,"Independence",false,"Independence",68,"Independence",false,"Belief in oneself",80,"Self-confidence",true,1821,,,,,,,,,
668d47c713ff36650d859118,forced_choice,106,370,"Relationships with teachers",11,"Relationships with teachers",false,"Self-starting",69,"Initiative",true,"Self-starting",69,"Initiative",true,"Relationships with teachers",11,"Relationships with teachers",false,2787,,,,,,,,,
668d47c713ff36650d859118,forced_choice,107,370,"Situational awareness",7,"Perception",true,"Assisting others",63,"Helpfulness",true,"Situational awareness",7,"Perception",true,"Assisting others",63,"Helpfulness",true,1494,,,,,,,,,
668d47c713ff36650d859118,forced_choice,108,370,"Drug intake",87,"Substance use",true,"Inbound communication",2,"Receptive communication",true,"Inbound communication",2,"Receptive communication",true,"Drug intake",87,"Substance use",true,4271,,,,,,,,,
668d47c713ff36650d859118,forced_choice,109,370,"Academic performance",88,"Academic performance",false,"Task initiation",46,"Task initiation",false,"Task initiation",46,"Task initiation",false,"Academic performance",88,"Academic performance",false,3845,,,,,,,,,
668d47c713ff36650d859118,attention_check,111,,,,,,,,,,,,,,,,,,6999,"Playing with others","Playing with others",true,,,,,,
668d47c713ff36650d859118,forced_choice,110,370,"Task initiation",46,"Task initiation",false,"Directness",70,"Assertiveness",true,"Task initiation",46,"Task initiation",false,"Directness",70,"Assertiveness",true,1566,,,,,,,,,
668d47c713ff36650d859118,forced_choice,111,370,"Self-starting",69,"Initiative",true,"Directness",70,"Assertiveness",true,"Self-starting",69,"Initiative",true,"Directness",70,"Assertiveness",true,2522,,,,,,,,,
668d47c713ff36650d859118,forced_choice,112,370,"Compassion",64,"Kindness and caring",true,"Regulating feelings",29,"Managing emotions",true,"Regulating feelings",29,"Managing emotions",true,"Compassion",64,"Kindness and caring",true,1399,,,,,,,,,
668d47c713ff36650d859118,forced_choice,113,370,"Text comprehension",52,"Reading",true,"Group interaction",15,"Social activity",true,"Text comprehension",52,"Reading",true,"Group interaction",15,"Social activity",true,1009,,,,,,,,,
668d47c713ff36650d859118,forced_choice,114,370,"Self-starting",69,"Initiative",true,"Assisting others",63,"Helpfulness",true,"Self-starting",69,"Initiative",true,"Assisting others",63,"Helpfulness",true,2172,,,,,,,,,
668d47c713ff36650d859118,forced_choice,115,370,"Situational awareness",7,"Perception",true,"Working for outcomes",45,"Setting and striving for goals",true,"Situational awareness",7,"Perception",true,"Working for outcomes",45,"Setting and striving for goals",true,1201,,,,,,,,,
668d47c713ff36650d859118,forced_choice,116,370,"Play",19,"Play",false,"Perseverance",71,"Perseverance",false,"Play",19,"Play",false,"Perseverance",71,"Perseverance",false,1795,,,,,,,,,
668d47c713ff36650d859118,forced_choice,117,370,"Self-advocacy",81,"Self-advocacy",false,"Academic performance",88,"Academic performance",false,"Self-advocacy",81,"Self-advocacy",false,"Academic performance",88,"Academic performance",false,1868,,,,,,,,,
668d47c713ff36650d859118,forced_choice,118,370,"Text comprehension",52,"Reading",true,"Drive or ambition",54,"Motivation",true,"Text comprehension",52,"Reading",true,"Drive or ambition",54,"Motivation",true,1225,,,,,,,,,
668d47c713ff36650d859118,forced_choice,119,370,"Self-starting",69,"Initiative",true,"Academic performance",88,"Academic performance",false,"Self-starting",69,"Initiative",true,"Academic performance",88,"Academic performance",false,1626,,,,,,,,,
668d47c713ff36650d859118,forced_choice,120,370,"Relationships with teachers",11,"Relationships with teachers",false,"Compassion",64,"Kindness and caring",true,"Compassion",64,"Kindness and caring",true,"Relationships with teachers",11,"Relationships with teachers",false,3316,,,,,,,,,
668d47c713ff36650d859118,forced_choice,121,370,"Perseverance",71,"Perseverance",false,"Courteous",61,"Politeness",true,"Perseverance",71,"Perseverance",false,"Courteous",61,"Politeness",true,2214,,,,,,,,,
668d47c713ff36650d859118,forced_choice,122,370,"Assisting others",63,"Helpfulness",true,"Belief in oneself",80,"Self-confidence",true,"Belief in oneself",80,"Self-confidence",true,"Assisting others",63,"Helpfulness",true,5004,,,,,,,,,
668d47c713ff36650d859118,forced_choice,123,370,"Resilience",28,"Resilience",false,"Task initiation",46,"Task initiation",false,"Resilience",28,"Resilience",false,"Task initiation",46,"Task initiation",false,1381,,,,,,,,,
668d47c713ff36650d859118,forced_choice,124,370,"Academic performance",88,"Academic performance",false,"Compassion",64,"Kindness and caring",true,"Compassion",64,"Kindness and caring",true,"Academic performance",88,"Academic performance",false,1545,,,,,,,,,
668d47c713ff36650d859118,forced_choice,125,370,"Perseverance",71,"Perseverance",false,"Penmanship",53,"Writing",true,"Perseverance",71,"Perseverance",false,"Penmanship",53,"Writing",true,22990,,,,,,,,,
668d47c713ff36650d859118,forced_choice,126,370,"Relationships with teachers",11,"Relationships with teachers",false,"Self-advocacy",81,"Self-advocacy",false,"Self-advocacy",81,"Self-advocacy",false,"Relationships with teachers",11,"Relationships with teachers",false,15291,,,,,,,,,
668d47c713ff36650d859118,forced_choice,127,370,"Self-awareness",76,"Self-awareness",false,"Relationships with teachers",11,"Relationships with teachers",false,"Self-awareness",76,"Self-awareness",false,"Relationships with teachers",11,"Relationships with teachers",false,6746,,,,,,,,,
668d47c713ff36650d859118,forced_choice,128,370,"Inbound communication",2,"Receptive communication",true,"Working for outcomes",45,"Setting and striving for goals",true,"Inbound communication",2,"Receptive communication",true,"Working for outcomes",45,"Setting and striving for goals",true,1400,,,,,,,,,
668d47c713ff36650d859118,forced_choice,129,370,"Frustration tolerance",62,"Patience",true,"Working for outcomes",45,"Setting and striving for goals",true,"Working for outcomes",45,"Setting and striving for goals",true,"Frustration tolerance",62,"Patience",true,4307,,,,,,,,,
668d47c713ff36650d859118,forced_choice,130,370,"Situational awareness",7,"Perception",true,"Resilience",28,"Resilience",false,"Resilience",28,"Resilience",false,"Situational awareness",7,"Perception",true,2178,,,,,,,,,
668d47c713ff36650d859118,forced_choice,131,370,"Resilience",28,"Resilience",false,"Drive or ambition",54,"Motivation",true,"Resilience",28,"Resilience",false,"Drive or ambition",54,"Motivation",true,1039,,,,,,,,,
668d47c713ff36650d859118,forced_choice,132,370,"Situational awareness",7,"Perception",true,"Compassion",64,"Kindness and caring",true,"Compassion",64,"Kindness and caring",true,"Situational awareness",7,"Perception",true,2625,,,,,,,,,
668d47c713ff36650d859118,forced_choice,133,370,"Penmanship",53,"Writing",true,"Situational awareness",7,"Perception",true,"Situational awareness",7,"Perception",true,"Penmanship",53,"Writing",true,1029,,,,,,,,,
668d47c713ff36650d859118,forced_choice,134,370,"Drive or ambition",54,"Motivation",true,"Self-starting",69,"Initiative",true,"Self-starting",69,"Initiative",true,"Drive or ambition",54,"Motivation",true,1738,,,,,,,,,
668d47c713ff36650d859118,forced_choice,135,370,"Situational awareness",7,"Perception",true,"Frustration tolerance",62,"Patience",true,"Situational awareness",7,"Perception",true,"Frustration tolerance",62,"Patience",true,1606,,,,,,,,,
668d47c713ff36650d859118,forced_choice,136,370,"Working for outcomes",45,"Setting and striving for goals",true,"Relationships with teachers",11,"Relationships with teachers",false,"Working for outcomes",45,"Setting and striving for goals",true,"Relationships with teachers",11,"Relationships with teachers",false,1768,,,,,,,,,
668d47c713ff36650d859118,forced_choice,137,370,"Independence",68,"Independence",false,"Self-starting",69,"Initiative",true,"Independence",68,"Independence",false,"Self-starting",69,"Initiative",true,1192,,,,,,,,,
668d47c713ff36650d859118,forced_choice,138,370,"Text comprehension",52,"Reading",true,"Working for outcomes",45,"Setting and striving for goals",true,"Text comprehension",52,"Reading",true,"Working for outcomes",45,"Setting and striving for goals",true,845,,,,,,,,,
668d47c713ff36650d859118,forced_choice,139,370,"Play",19,"Play",false,"Drive or ambition",54,"Motivation",true,"Play",19,"Play",false,"Drive or ambition",54,"Motivation",true,2593,,,,,,,,,
668d47c713ff36650d859118,forced_choice,140,370,"Independence",68,"Independence",false,"Resilience",28,"Resilience",false,"Resilience",28,"Resilience",false,"Independence",68,"Independence",false,1128,,,,,,,,,
668d47c713ff36650d859118,forced_choice,141,370,"Penmanship",53,"Writing",true,"Self-starting",69,"Initiative",true,"Self-starting",69,"Initiative",true,"Penmanship",53,"Writing",true,1083,,,,,,,,,
668d47c713ff36650d859118,forced_choice,142,370,"Self-awareness",76,"Self-awareness",false,"Courteous",61,"Politeness",true,"Self-awareness",76,"Self-awareness",false,"Courteous",61,"Politeness",true,1741,,,,,,,,,
668d47c713ff36650d859118,forced_choice,143,370,"Drive or ambition",54,"Motivation",true,"Drug intake",87,"Substance use",true,"Drive or ambition",54,"Motivation",true,"Drug intake",87,"Substance use",true,1485,,,,,,,,,
668d47c713ff36650d859118,forced_choice,144,370,"Directness",70,"Assertiveness",true,"Relationships with teachers",11,"Relationships with teachers",false,"Directness",70,"Assertiveness",true,"Relationships with teachers",11,"Relationships with teachers",false,2900,,,,,,,,,
668d47c713ff36650d859118,forced_choice,145,370,"Regulating feelings",29,"Managing emotions",true,"Self-starting",69,"Initiative",true,"Regulating feelings",29,"Managing emotions",true,"Self-starting",69,"Initiative",true,1113,,,,,,,,,
668d47c713ff36650d859118,forced_choice,146,370,"Text comprehension",52,"Reading",true,"Directness",70,"Assertiveness",true,"Text comprehension",52,"Reading",true,"Directness",70,"Assertiveness",true,860,,,,,,,,,
668d47c713ff36650d859118,forced_choice,147,370,"Frustration tolerance",62,"Patience",true,"Belief in oneself",80,"Self-confidence",true,"Belief in oneself",80,"Self-confidence",true,"Frustration tolerance",62,"Patience",true,1654,,,,,,,,,
668d47c713ff36650d859118,forced_choice,148,370,"Penmanship",53,"Writing",true,"Text comprehension",52,"Reading",true,"Text comprehension",52,"Reading",true,"Penmanship",53,"Writing",true,1682,,,,,,,,,
668d47c713ff36650d859118,forced_choice,149,370,"Directness",70,"Assertiveness",true,"Resilience",28,"Resilience",false,"Resilience",28,"Resilience",false,"Directness",70,"Assertiveness",true,3366,,,,,,,,,
668d47c713ff36650d859118,forced_choice,150,370,"Frustration tolerance",62,"Patience",true,"Self-awareness",76,"Self-awareness",false,"Self-awareness",76,"Self-awareness",false,"Frustration tolerance",62,"Patience",true,1819,,,,,,,,,
668d47c713ff36650d859118,forced_choice,151,370,"Penmanship",53,"Writing",true,"Independence",68,"Independence",false,"Independence",68,"Independence",false,"Penmanship",53,"Writing",true,1365,,,,,,,,,
668d47c713ff36650d859118,forced_choice,152,370,"Play",19,"Play",false,"Regulating feelings",29,"Managing emotions",true,"Regulating feelings",29,"Managing emotions",true,"Play",19,"Play",false,1371,,,,,,,,,
668d47c713ff36650d859118,forced_choice,153,370,"Group interaction",15,"Social activity",true,"Courteous",61,"Politeness",true,"Group interaction",15,"Social activity",true,"Courteous",61,"Politeness",true,2510,,,,,,,,,
668d47c713ff36650d859118,forced_choice,154,370,"Text comprehension",52,"Reading",true,"Frustration tolerance",62,"Patience",true,"Text comprehension",52,"Reading",true,"Frustration tolerance",62,"Patience",true,898,,,,,,,,,
668d47c713ff36650d859118,forced_choice,155,370,"Drug intake",87,"Substance use",true,"Task initiation",46,"Task initiation",false,"Task initiation",46,"Task initiation",false,"Drug intake",87,"Substance use",true,1247,,,,,,,,,
668d47c713ff36650d859118,forced_choice,156,370,"Penmanship",53,"Writing",true,"Group interaction",15,"Social activity",true,"Group interaction",15,"Social activity",true,"Penmanship",53,"Writing",true,2089,,,,,,,,,
668d47c713ff36650d859118,forced_choice,157,370,"Belief in oneself",80,"Self-confidence",true,"Relationships with teachers",11,"Relationships with teachers",false,"Belief in oneself",80,"Self-confidence",true,"Relationships with teachers",11,"Relationships with teachers",false,1776,,,,,,,,,
668d47c713ff36650d859118,forced_choice,158,370,"Compassion",64,"Kindness and caring",true,"Text comprehension",52,"Reading",true,"Text comprehension",52,"Reading",true,"Compassion",64,"Kindness and caring",true,1771,,,,,,,,,
668d47c713ff36650d859118,forced_choice,159,370,"Drive or ambition",54,"Motivation",true,"Frustration tolerance",62,"Patience",true,"Drive or ambition",54,"Motivation",true,"Frustration tolerance",62,"Patience",true,2345,,,,,,,,,
668d47c713ff36650d859118,forced_choice,160,370,"Task initiation",46,"Task initiation",false,"Compassion",64,"Kindness and caring",true,"Task initiation",46,"Task initiation",false,"Compassion",64,"Kindness and caring",true,5409,,,,,,,,,
668d47c713ff36650d859118,forced_choice,161,370,"Relationships with teachers",11,"Relationships with teachers",false,"Drug intake",87,"Substance use",true,"Relationships with teachers",11,"Relationships with teachers",false,"Drug intake",87,"Substance use",true,4114,,,,,,,,,
668d47c713ff36650d859118,forced_choice,162,370,"Working for outcomes",45,"Setting and striving for goals",true,"Self-advocacy",81,"Self-advocacy",false,"Self-advocacy",81,"Self-advocacy",false,"Working for outcomes",45,"Setting and striving for goals",true,6111,,,,,,,,,
668d47c713ff36650d859118,forced_choice,163,370,"Exhaustion",85,"Sleep and fatigue",true,"Group interaction",15,"Social activity",true,"Group interaction",15,"Social activity",true,"Exhaustion",85,"Sleep and fatigue",true,1357,,,,,,,,,
668d47c713ff36650d859118,forced_choice,164,370,"Drug intake",87,"Substance use",true,"Self-advocacy",81,"Self-advocacy",false,"Self-advocacy",81,"Self-advocacy",false,"Drug intake",87,"Substance use",true,1057,,,,,,,,,
668d47c713ff36650d859118,attention_check,167,,,,,,,,,,,,,,,,,,2491,"Social skills","Social skills",true,,,,,,
668d47c713ff36650d859118,forced_choice,165,370,"Relationships with teachers",11,"Relationships with teachers",false,"Penmanship",53,"Writing",true,"Penmanship",53,"Writing",true,"Relationships with teachers",11,"Relationships with teachers",false,3677,,,,,,,,,
668d47c713ff36650d859118,forced_choice,166,370,"Independence",68,"Independence",false,"Exhaustion",85,"Sleep and fatigue",true,"Independence",68,"Independence",false,"Exhaustion",85,"Sleep and fatigue",true,2703,,,,,,,,,
668d47c713ff36650d859118,forced_choice,167,370,"Drug intake",87,"Substance use",true,"Working for outcomes",45,"Setting and striving for goals",true,"Working for outcomes",45,"Setting and striving for goals",true,"Drug intake",87,"Substance use",true,1235,,,,,,,,,
668d47c713ff36650d859118,forced_choice,168,370,"Relationships with teachers",11,"Relationships with teachers",false,"Play",19,"Play",false,"Play",19,"Play",false,"Relationships with teachers",11,"Relationships with teachers",false,1945,,,,,,,,,
668d47c713ff36650d859118,forced_choice,169,370,"Academic performance",88,"Academic performance",false,"Text comprehension",52,"Reading",true,"Text comprehension",52,"Reading",true,"Academic performance",88,"Academic performance",false,1517,,,,,,,,,
668d47c713ff36650d859118,forced_choice,170,370,"Inbound communication",2,"Receptive communication",true,"Regulating feelings",29,"Managing emotions",true,"Regulating feelings",29,"Managing emotions",true,"Inbound communication",2,"Receptive communication",true,2028,,,,,,,,,
668d47c713ff36650d859118,forced_choice,171,370,"Courteous",61,"Politeness",true,"Directness",70,"Assertiveness",true,"Directness",70,"Assertiveness",true,"Courteous",61,"Politeness",true,5889,,,,,,,,,
668d47c713ff36650d859118,forced_choice,172,370,"Self-starting",69,"Initiative",true,"Self-advocacy",81,"Self-advocacy",false,"Self-advocacy",81,"Self-advocacy",false,"Self-starting",69,"Initiative",true,1682,,,,,,,,,
668d47c713ff36650d859118,forced_choice,173,370,"Drug intake",87,"Substance use",true,"Directness",70,"Assertiveness",true,"Directness",70,"Assertiveness",true,"Drug intake",87,"Substance use",true,1367,,,,,,,,,
668d47c713ff36650d859118,forced_choice,174,370,"Task initiation",46,"Task initiation",false,"Situational awareness",7,"Perception",true,"Situational awareness",7,"Perception",true,"Task initiation",46,"Task initiation",false,1364,,,,,,,,,
668d47c713ff36650d859118,forced_choice,175,370,"Academic performance",88,"Academic performance",false,"Exhaustion",85,"Sleep and fatigue",true,"Academic performance",88,"Academic performance",false,"Exhaustion",85,"Sleep and fatigue",true,5633,,,,,,,,,
668d47c713ff36650d859118,forced_choice,176,370,"Exhaustion",85,"Sleep and fatigue",true,"Self-starting",69,"Initiative",true,"Self-starting",69,"Initiative",true,"Exhaustion",85,"Sleep and fatigue",true,1209,,,,,,,,,
668d47c713ff36650d859118,forced_choice,177,370,"Resilience",28,"Resilience",false,"Perseverance",71,"Perseverance",false,"Resilience",28,"Resilience",false,"Perseverance",71,"Perseverance",false,1114,,,,,,,,,
668d47c713ff36650d859118,forced_choice,178,370,"Perseverance",71,"Perseverance",false,"Independence",68,"Independence",false,"Perseverance",71,"Perseverance",false,"Independence",68,"Independence",false,1316,,,,,,,,,
668d47c713ff36650d859118,forced_choice,179,370,"Relationships with teachers",11,"Relationships with teachers",false,"Perseverance",71,"Perseverance",false,"Perseverance",71,"Perseverance",false,"Relationships with teachers",11,"Relationships with teachers",false,1159,,,,,,,,,
668d47c713ff36650d859118,forced_choice,180,370,"Frustration tolerance",62,"Patience",true,"Courteous",61,"Politeness",true,"Courteous",61,"Politeness",true,"Frustration tolerance",62,"Patience",true,4209,,,,,,,,,
668d47c713ff36650d859118,forced_choice,181,370,"Play",19,"Play",false,"Directness",70,"Assertiveness",true,"Play",19,"Play",false,"Directness",70,"Assertiveness",true,1034,,,,,,,,,
668d47c713ff36650d859118,forced_choice,182,370,"Belief in oneself",80,"Self-confidence",true,"Regulating feelings",29,"Managing emotions",true,"Regulating feelings",29,"Managing emotions",true,"Belief in oneself",80,"Self-confidence",true,1491,,,,,,,,,
668d47c713ff36650d859118,forced_choice,183,370,"Drug intake",87,"Substance use",true,"Frustration tolerance",62,"Patience",true,"Frustration tolerance",62,"Patience",true,"Drug intake",87,"Substance use",true,1449,,,,,,,,,
668d47c713ff36650d859118,forced_choice,184,370,"Compassion",64,"Kindness and caring",true,"Group interaction",15,"Social activity",true,"Group interaction",15,"Social activity",true,"Compassion",64,"Kindness and caring",true,1905,,,,,,,,,
668d47c713ff36650d859118,forced_choice,185,370,"Drive or ambition",54,"Motivation",true,"Exhaustion",85,"Sleep and fatigue",true,"Drive or ambition",54,"Motivation",true,"Exhaustion",85,"Sleep and fatigue",true,2021,,,,,,,,,
668d47c713ff36650d859118,forced_choice,186,370,"Belief in oneself",80,"Self-confidence",true,"Perseverance",71,"Perseverance",false,"Belief in oneself",80,"Self-confidence",true,"Perseverance",71,"Perseverance",false,1839,,,,,,,,,
668d47c713ff36650d859118,forced_choice,187,370,"Belief in oneself",80,"Self-confidence",true,"Group interaction",15,"Social activity",true,"Group interaction",15,"Social activity",true,"Belief in oneself",80,"Self-confidence",true,1365,,,,,,,,,
668d47c713ff36650d859118,forced_choice,188,370,"Situational awareness",7,"Perception",true,"Self-awareness",76,"Self-awareness",false,"Situational awareness",7,"Perception",true,"Self-awareness",76,"Self-awareness",false,3570,,,,,,,,,
668d47c713ff36650d859118,forced_choice,189,370,"Text comprehension",52,"Reading",true,"Assisting others",63,"Helpfulness",true,"Text comprehension",52,"Reading",true,"Assisting others",63,"Helpfulness",true,997,,,,,,,,,
668d47c713ff36650d859118,forced_choice,190,370,"Resilience",28,"Resilience",false,"Assisting others",63,"Helpfulness",true,"Resilience",28,"Resilience",false,"Assisting others",63,"Helpfulness",true,2907,,,,,,,,,
668d47c713ff36650d859118,forced_choice,191,370,"Resilience",28,"Resilience",false,"Working for outcomes",45,"Setting and striving for goals",true,"Resilience",28,"Resilience",false,"Working for outcomes",45,"Setting and striving for goals",true,1454,,,,,,,,,
668d47c713ff36650d859118,forced_choice,192,370,"Working for outcomes",45,"Setting and striving for goals",true,"Self-awareness",76,"Self-awareness",false,"Self-awareness",76,"Self-awareness",false,"Working for outcomes",45,"Setting and striving for goals",true,1886,,,,,,,,,
668d47c713ff36650d859118,forced_choice,193,370,"Group interaction",15,"Social activity",true,"Working for outcomes",45,"Setting and striving for goals",true,"Group interaction",15,"Social activity",true,"Working for outcomes",45,"Setting and striving for goals",true,2617,,,,,,,,,
668d47c713ff36650d859118,forced_choice,194,370,"Text comprehension",52,"Reading",true,"Belief in oneself",80,"Self-confidence",true,"Text comprehension",52,"Reading",true,"Belief in oneself",80,"Self-confidence",true,933,,,,,,,,,
668d47c713ff36650d859118,forced_choice,195,370,"Exhaustion",85,"Sleep and fatigue",true,"Belief in oneself",80,"Self-confidence",true,"Belief in oneself",80,"Self-confidence",true,"Exhaustion",85,"Sleep and fatigue",true,1167,,,,,,,,,
668d47c713ff36650d859118,forced_choice,196,370,"Task initiation",46,"Task initiation",false,"Self-advocacy",81,"Self-advocacy",false,"Task initiation",46,"Task initiation",false,"Self-advocacy",81,"Self-advocacy",false,4301,,,,,,,,,
668d47c713ff36650d859118,forced_choice,197,370,"Working for outcomes",45,"Setting and striving for goals",true,"Self-starting",69,"Initiative",true,"Self-starting",69,"Initiative",true,"Working for outcomes",45,"Setting and striving for goals",true,1169,,,,,,,,,
668d47c713ff36650d859118,forced_choice,198,370,"Situational awareness",7,"Perception",true,"Self-advocacy",81,"Self-advocacy",false,"Situational awareness",7,"Perception",true,"Self-advocacy",81,"Self-advocacy",false,1718,,,,,,,,,
668d47c713ff36650d859118,forced_choice,199,370,"Assisting others",63,"Helpfulness",true,"Relationships with teachers",11,"Relationships with teachers",false,"Assisting others",63,"Helpfulness",true,"Relationships with teachers",11,"Relationships with teachers",false,3602,,,,,,,,,
668d47c713ff36650d859118,forced_choice,200,370,"Text comprehension",52,"Reading",true,"Relationships with teachers",11,"Relationships with teachers",false,"Text comprehension",52,"Reading",true,"Relationships with teachers",11,"Relationships with teachers",false,1086,,,,,,,,,
668d47c713ff36650d859118,forced_choice,201,370,"Resilience",28,"Resilience",false,"Text comprehension",52,"Reading",true,"Resilience",28,"Resilience",false,"Text comprehension",52,"Reading",true,1101,,,,,,,,,
668d47c713ff36650d859118,forced_choice,202,370,"Compassion",64,"Kindness and caring",true,"Frustration tolerance",62,"Patience",true,"Compassion",64,"Kindness and caring",true,"Frustration tolerance",62,"Patience",true,3963,,,,,,,,,
668d47c713ff36650d859118,forced_choice,203,370,"Belief in oneself",80,"Self-confidence",true,"Working for outcomes",45,"Setting and striving for goals",true,"Belief in oneself",80,"Self-confidence",true,"Working for outcomes",45,"Setting and striving for goals",true,1383,,,,,,,,,
668d47c713ff36650d859118,forced_choice,204,370,"Self-awareness",76,"Self-awareness",false,"Belief in oneself",80,"Self-confidence",true,"Self-awareness",76,"Self-awareness",false,"Belief in oneself",80,"Self-confidence",true,3189,,,,,,,,,
668d47c713ff36650d859118,forced_choice,205,370,"Self-advocacy",81,"Self-advocacy",false,"Play",19,"Play",false,"Play",19,"Play",false,"Self-advocacy",81,"Self-advocacy",false,1522,,,,,,,,,
668d47c713ff36650d859118,forced_choice,206,370,"Resilience",28,"Resilience",false,"Academic performance",88,"Academic performance",false,"Resilience",28,"Resilience",false,"Academic performance",88,"Academic performance",false,1908,,,,,,,,,
668d47c713ff36650d859118,forced_choice,207,370,"Regulating feelings",29,"Managing emotions",true,"Penmanship",53,"Writing",true,"Regulating feelings",29,"Managing emotions",true,"Penmanship",53,"Writing",true,1021,,,,,,,,,
668d47c713ff36650d859118,forced_choice,208,370,"Perseverance",71,"Perseverance",false,"Compassion",64,"Kindness and caring",true,"Compassion",64,"Kindness and caring",true,"Perseverance",71,"Perseverance",false,1891,,,,,,,,,
668d47c713ff36650d859118,forced_choice,209,370,"Drug intake",87,"Substance use",true,"Independence",68,"Independence",false,"Independence",68,"Independence",false,"Drug intake",87,"Substance use",true,1478,,,,,,,,,
668d47c713ff36650d859118,forced_choice,210,370,"Directness",70,"Assertiveness",true,"Assisting others",63,"Helpfulness",true,"Assisting others",63,"Helpfulness",true,"Directness",70,"Assertiveness",true,2488,,,,,,,,,
668d47c713ff36650d859118,forced_choice,211,370,"Drug intake",87,"Substance use",true,"Assisting others",63,"Helpfulness",true,"Assisting others",63,"Helpfulness",true,"Drug intake",87,"Substance use",true,1624,,,,,,,,,
668d47c713ff36650d859118,forced_choice,212,370,"Play",19,"Play",false,"Text comprehension",52,"Reading",true,"Text comprehension",52,"Reading",true,"Play",19,"Play",false,1263,,,,,,,,,
668d47c713ff36650d859118,forced_choice,213,370,"Perseverance",71,"Perseverance",false,"Drive or ambition",54,"Motivation",true,"Perseverance",71,"Perseverance",false,"Drive or ambition",54,"Motivation",true,1746,,,,,,,,,
668d47c713ff36650d859118,forced_choice,214,370,"Directness",70,"Assertiveness",true,"Independence",68,"Independence",false,"Independence",68,"Independence",false,"Directness",70,"Assertiveness",true,1264,,,,,,,,,
668d47c713ff36650d859118,forced_choice,215,370,"Drive or ambition",54,"Motivation",true,"Independence",68,"Independence",false,"Independence",68,"Independence",false,"Drive or ambition",54,"Motivation",true,3217,,,,,,,,,
668d47c713ff36650d859118,forced_choice,216,370,"Resilience",28,"Resilience",false,"Compassion",64,"Kindness and caring",true,"Resilience",28,"Resilience",false,"Compassion",64,"Kindness and caring",true,2399,,,,,,,,,
668d47c713ff36650d859118,forced_choice,217,370,"Relationships with teachers",11,"Relationships with teachers",false,"Drive or ambition",54,"Motivation",true,"Drive or ambition",54,"Motivation",true,"Relationships with teachers",11,"Relationships with teachers",false,1443,,,,,,,,,
668d47c713ff36650d859118,forced_choice,218,370,"Frustration tolerance",62,"Patience",true,"Inbound communication",2,"Receptive communication",true,"Inbound communication",2,"Receptive communication",true,"Frustration tolerance",62,"Patience",true,3211,,,,,,,,,
668d47c713ff36650d859118,forced_choice,219,370,"Drug intake",87,"Substance use",true,"Exhaustion",85,"Sleep and fatigue",true,"Exhaustion",85,"Sleep and fatigue",true,"Drug intake",87,"Substance use",true,7081,,,,,,,,,
668d47c713ff36650d859118,attention_check,223,,,,,,,,,,,,,,,,,,2433,"Managing emotions","Managing emotions",true,,,,,,
668d47c713ff36650d859118,forced_choice,220,370,"Drug intake",87,"Substance use",true,"Self-awareness",76,"Self-awareness",false,"Self-awareness",76,"Self-awareness",false,"Drug intake",87,"Substance use",true,1789,,,,,,,,,
668d47c713ff36650d859118,forced_choice,221,370,"Assisting others",63,"Helpfulness",true,"Play",19,"Play",false,"Play",19,"Play",false,"Assisting others",63,"Helpfulness",true,1508,,,,,,,,,
668d47c713ff36650d859118,forced_choice,222,370,"Self-awareness",76,"Self-awareness",false,"Resilience",28,"Resilience",false,"Resilience",28,"Resilience",false,"Self-awareness",76,"Self-awareness",false,1899,,,,,,,,,
668d47c713ff36650d859118,forced_choice,223,370,"Exhaustion",85,"Sleep and fatigue",true,"Self-advocacy",81,"Self-advocacy",false,"Self-advocacy",81,"Self-advocacy",false,"Exhaustion",85,"Sleep and fatigue",true,1160,,,,,,,,,
668d47c713ff36650d859118,forced_choice,224,370,"Independence",68,"Independence",false,"Frustration tolerance",62,"Patience",true,"Independence",68,"Independence",false,"Frustration tolerance",62,"Patience",true,1693,,,,,,,,,
668d47c713ff36650d859118,forced_choice,225,370,"Drug intake",87,"Substance use",true,"Resilience",28,"Resilience",false,"Resilience",28,"Resilience",false,"Drug intake",87,"Substance use",true,1486,,,,,,,,,
668d47c713ff36650d859118,forced_choice,226,370,"Task initiation",46,"Task initiation",false,"Play",19,"Play",false,"Play",19,"Play",false,"Task initiation",46,"Task initiation",false,1251,,,,,,,,,
668d47c713ff36650d859118,forced_choice,227,370,"Inbound communication",2,"Receptive communication",true,"Group interaction",15,"Social activity",true,"Inbound communication",2,"Receptive communication",true,"Group interaction",15,"Social activity",true,2665,,,,,,,,,
668d47c713ff36650d859118,forced_choice,228,370,"Task initiation",46,"Task initiation",false,"Penmanship",53,"Writing",true,"Task initiation",46,"Task initiation",false,"Penmanship",53,"Writing",true,1097,,,,,,,,,
668d47c713ff36650d859118,forced_choice,229,370,"Belief in oneself",80,"Self-confidence",true,"Self-starting",69,"Initiative",true,"Belief in oneself",80,"Self-confidence",true,"Self-starting",69,"Initiative",true,1307,,,,,,,,,
668d47c713ff36650d859118,forced_choice,230,370,"Penmanship",53,"Writing",true,"Drug intake",87,"Substance use",true,"Penmanship",53,"Writing",true,"Drug intake",87,"Substance use",true,1918,,,,,,,,,
668d47c713ff36650d859118,forced_choice,231,370,"Resilience",28,"Resilience",false,"Group interaction",15,"Social activity",true,"Resilience",28,"Resilience",false,"Group interaction",15,"Social activity",true,1850,,,,,,,,,
668d47c713ff36650d859118,forced_choice,232,370,"Courteous",61,"Politeness",true,"Working for outcomes",45,"Setting and striving for goals",true,"Courteous",61,"Politeness",true,"Working for outcomes",45,"Setting and striving for goals",true,1609,,,,,,,,,
668d47c713ff36650d859118,forced_choice,233,370,"Frustration tolerance",62,"Patience",true,"Group interaction",15,"Social activity",true,"Group interaction",15,"Social activity",true,"Frustration tolerance",62,"Patience",true,1455,,,,,,,,,
668d47c713ff36650d859118,forced_choice,234,370,"Relationships with teachers",11,"Relationships with teachers",false,"Frustration tolerance",62,"Patience",true,"Frustration tolerance",62,"Patience",true,"Relationships with teachers",11,"Relationships with teachers",false,8567,,,,,,,,,
668d47c713ff36650d859118,forced_choice,235,370,"Play",19,"Play",false,"Frustration tolerance",62,"Patience",true,"Play",19,"Play",false,"Frustration tolerance",62,"Patience",true,1955,,,,,,,,,
668d47c713ff36650d859118,forced_choice,236,370,"Regulating feelings",29,"Managing emotions",true,"Directness",70,"Assertiveness",true,"Regulating feelings",29,"Managing emotions",true,"Directness",70,"Assertiveness",true,1260,,,,,,,,,
668d47c713ff36650d859118,forced_choice,237,370,"Academic performance",88,"Academic performance",false,"Drug intake",87,"Substance use",true,"Academic performance",88,"Academic performance",false,"Drug intake",87,"Substance use",true,1265,,,,,,,,,
668d47c713ff36650d859118,forced_choice,238,370,"Situational awareness",7,"Perception",true,"Text comprehension",52,"Reading",true,"Text comprehension",52,"Reading",true,"Situational awareness",7,"Perception",true,1370,,,,,,,,,
668d47c713ff36650d859118,forced_choice,239,370,"Regulating feelings",29,"Managing emotions",true,"Courteous",61,"Politeness",true,"Regulating feelings",29,"Managing emotions",true,"Courteous",61,"Politeness",true,1848,,,,,,,,,
668d47c713ff36650d859118,forced_choice,240,370,"Compassion",64,"Kindness and caring",true,"Exhaustion",85,"Sleep and fatigue",true,"Compassion",64,"Kindness and caring",true,"Exhaustion",85,"Sleep and fatigue",true,2082,,,,,,,,,
668d47c713ff36650d859118,forced_choice,241,370,"Inbound communication",2,"Receptive communication",true,"Resilience",28,"Resilience",false,"Resilience",28,"Resilience",false,"Inbound communication",2,"Receptive communication",true,1484,,,,,,,,,
668d47c713ff36650d859118,forced_choice,242,370,"Relationships with teachers",11,"Relationships with teachers",false,"Courteous",61,"Politeness",true,"Courteous",61,"Politeness",true,"Relationships with teachers",11,"Relationships with teachers",false,2543,,,,,,,,,
668d47c713ff36650d859118,forced_choice,243,370,"Self-advocacy",81,"Self-advocacy",false,"Drive or ambition",54,"Motivation",true,"Self-advocacy",81,"Self-advocacy",false,"Drive or ambition",54,"Motivation",true,1847,,,,,,,,,
668d47c713ff36650d859118,forced_choice,244,370,"Play",19,"Play",false,"Inbound communication",2,"Receptive communication",true,"Inbound communication",2,"Receptive communication",true,"Play",19,"Play",false,1200,,,,,,,,,
668d47c713ff36650d859118,forced_choice,245,370,"Perseverance",71,"Perseverance",false,"Frustration tolerance",62,"Patience",true,"Perseverance",71,"Perseverance",false,"Frustration tolerance",62,"Patience",true,1032,,,,,,,,,
668d47c713ff36650d859118,forced_choice,246,370,"Group interaction",15,"Social activity",true,"Directness",70,"Assertiveness",true,"Group interaction",15,"Social activity",true,"Directness",70,"Assertiveness",true,2812,,,,,,,,,
668d47c713ff36650d859118,forced_choice,247,370,"Self-awareness",76,"Self-awareness",false,"Compassion",64,"Kindness and caring",true,"Compassion",64,"Kindness and caring",true,"Self-awareness",76,"Self-awareness",false,1407,,,,,,,,,
668d47c713ff36650d859118,forced_choice,248,370,"Self-awareness",76,"Self-awareness",false,"Independence",68,"Independence",false,"Independence",68,"Independence",false,"Self-awareness",76,"Self-awareness",false,3031,,,,,,,,,
668d47c713ff36650d859118,forced_choice,249,370,"Text comprehension",52,"Reading",true,"Self-starting",69,"Initiative",true,"Text comprehension",52,"Reading",true,"Self-starting",69,"Initiative",true,1010,,,,,,,,,
668d47c713ff36650d859118,forced_choice,250,370,"Compassion",64,"Kindness and caring",true,"Drive or ambition",54,"Motivation",true,"Compassion",64,"Kindness and caring",true,"Drive or ambition",54,"Motivation",true,1689,,,,,,,,,
668d47c713ff36650d859118,forced_choice,251,370,"Directness",70,"Assertiveness",true,"Perseverance",71,"Perseverance",false,"Perseverance",71,"Perseverance",false,"Directness",70,"Assertiveness",true,1163,,,,,,,,,
668d47c713ff36650d859118,forced_choice,252,370,"Courteous",61,"Politeness",true,"Drive or ambition",54,"Motivation",true,"Drive or ambition",54,"Motivation",true,"Courteous",61,"Politeness",true,2265,,,,,,,,,
668d47c713ff36650d859118,forced_choice,253,370,"Penmanship",53,"Writing",true,"Exhaustion",85,"Sleep and fatigue",true,"Penmanship",53,"Writing",true,"Exhaustion",85,"Sleep and fatigue",true,3292,,,,,,,,,
668d47c713ff36650d859118,forced_choice,254,370,"Task initiation",46,"Task initiation",false,"Courteous",61,"Politeness",true,"Task initiation",46,"Task initiation",false,"Courteous",61,"Politeness",true,1527,,,,,,,,,
668d47c713ff36650d859118,forced_choice,255,370,"Drive or ambition",54,"Motivation",true,"Penmanship",53,"Writing",true,"Drive or ambition",54,"Motivation",true,"Penmanship",53,"Writing",true,1703,,,,,,,,,
668d47c713ff36650d859118,forced_choice,256,370,"Courteous",61,"Politeness",true,"Self-starting",69,"Initiative",true,"Self-starting",69,"Initiative",true,"Courteous",61,"Politeness",true,1384,,,,,,,,,
668d47c713ff36650d859118,forced_choice,257,370,"Regulating feelings",29,"Managing emotions",true,"Self-advocacy",81,"Self-advocacy",false,"Regulating feelings",29,"Managing emotions",true,"Self-advocacy",81,"Self-advocacy",false,1117,,,,,,,,,
668d47c713ff36650d859118,forced_choice,258,370,"Directness",70,"Assertiveness",true,"Situational awareness",7,"Perception",true,"Situational awareness",7,"Perception",true,"Directness",70,"Assertiveness",true,1445,,,,,,,,,
668d47c713ff36650d859118,forced_choice,259,370,"Drug intake",87,"Substance use",true,"Text comprehension",52,"Reading",true,"Text comprehension",52,"Reading",true,"Drug intake",87,"Substance use",true,1344,,,,,,,,,
668d47c713ff36650d859118,forced_choice,260,370,"Academic performance",88,"Academic performance",false,"Directness",70,"Assertiveness",true,"Academic performance",88,"Academic performance",false,"Directness",70,"Assertiveness",true,1966,,,,,,,,,
668d47c713ff36650d859118,forced_choice,261,370,"Play",19,"Play",false,"Penmanship",53,"Writing",true,"Play",19,"Play",false,"Penmanship",53,"Writing",true,1998,,,,,,,,,
668d47c713ff36650d859118,forced_choice,262,370,"Relationships with teachers",11,"Relationships with teachers",false,"Regulating feelings",29,"Managing emotions",true,"Regulating feelings",29,"Managing emotions",true,"Relationships with teachers",11,"Relationships with teachers",false,1600,,,,,,,,,
668d47c713ff36650d859118,forced_choice,263,370,"Self-awareness",76,"Self-awareness",false,"Inbound communication",2,"Receptive communication",true,"Self-awareness",76,"Self-awareness",false,"Inbound communication",2,"Receptive communication",true,6184,,,,,,,,,
668d47c713ff36650d859118,forced_choice,264,370,"Self-awareness",76,"Self-awareness",false,"Directness",70,"Assertiveness",true,"Self-awareness",76,"Self-awareness",false,"Directness",70,"Assertiveness",true,1128,,,,,,,,,
668d47c713ff36650d859118,forced_choice,265,370,"Self-starting",69,"Initiative",true,"Frustration tolerance",62,"Patience",true,"Self-starting",69,"Initiative",true,"Frustration tolerance",62,"Patience",true,1112,,,,,,,,,
668d47c713ff36650d859118,forced_choice,266,370,"Perseverance",71,"Perseverance",false,"Situational awareness",7,"Perception",true,"Perseverance",71,"Perseverance",false,"Situational awareness",7,"Perception",true,1202,,,,,,,,,
668d47c713ff36650d859118,forced_choice,267,370,"Resilience",28,"Resilience",false,"Courteous",61,"Politeness",true,"Resilience",28,"Resilience",false,"Courteous",61,"Politeness",true,944,,,,,,,,,
668d47c713ff36650d859118,forced_choice,268,370,"Text comprehension",52,"Reading",true,"Task initiation",46,"Task initiation",false,"Text comprehension",52,"Reading",true,"Task initiation",46,"Task initiation",false,1200,,,,,,,,,
668d47c713ff36650d859118,forced_choice,269,370,"Independence",68,"Independence",false,"Courteous",61,"Politeness",true,"Independence",68,"Independence",false,"Courteous",61,"Politeness",true,1139,,,,,,,,,
668d47c713ff36650d859118,forced_choice,270,370,"Independence",68,"Independence",false,"Group interaction",15,"Social activity",true,"Independence",68,"Independence",false,"Group interaction",15,"Social activity",true,1121,,,,,,,,,
668d47c713ff36650d859118,forced_choice,271,370,"Exhaustion",85,"Sleep and fatigue",true,"Regulating feelings",29,"Managing emotions",true,"Regulating feelings",29,"Managing emotions",true,"Exhaustion",85,"Sleep and fatigue",true,1536,,,,,,,,,
668d47c713ff36650d859118,forced_choice,272,370,"Inbound communication",2,"Receptive communication",true,"Exhaustion",85,"Sleep and fatigue",true,"Inbound communication",2,"Receptive communication",true,"Exhaustion",85,"Sleep and fatigue",true,2637,,,,,,,,,
668d47c713ff36650d859118,forced_choice,273,370,"Self-starting",69,"Initiative",true,"Resilience",28,"Resilience",false,"Resilience",28,"Resilience",false,"Self-starting",69,"Initiative",true,1219,,,,,,,,,
668d47c713ff36650d859118,forced_choice,274,370,"Perseverance",71,"Perseverance",false,"Self-awareness",76,"Self-awareness",false,"Self-awareness",76,"Self-awareness",false,"Perseverance",71,"Perseverance",false,2954,,,,,,,,,
668d47c713ff36650d859118,attention_check,279,,,,,,,,,,,,,,,,,,2011,"Social skills","Social skills",true,,,,,,
668d47c713ff36650d859118,forced_choice,275,370,"Drive or ambition",54,"Motivation",true,"Situational awareness",7,"Perception",true,"Situational awareness",7,"Perception",true,"Drive or ambition",54,"Motivation",true,1943,,,,,,,,,
668d47c713ff36650d859118,forced_choice,276,370,"Situational awareness",7,"Perception",true,"Group interaction",15,"Social activity",true,"Group interaction",15,"Social activity",true,"Situational awareness",7,"Perception",true,2703,,,,,,,,,
668d47c713ff36650d859118,forced_choice,277,370,"Assisting others",63,"Helpfulness",true,"Working for outcomes",45,"Setting and striving for goals",true,"Working for outcomes",45,"Setting and striving for goals",true,"Assisting others",63,"Helpfulness",true,2633,,,,,,,,,
668d47c713ff36650d859118,forced_choice,278,370,"Situational awareness",7,"Perception",true,"Academic performance",88,"Academic performance",false,"Situational awareness",7,"Perception",true,"Academic performance",88,"Academic performance",false,1293,,,,,,,,,
668d47c713ff36650d859118,forced_choice,279,370,"Compassion",64,"Kindness and caring",true,"Independence",68,"Independence",false,"Independence",68,"Independence",false,"Compassion",64,"Kindness and caring",true,1405,,,,,,,,,
668d47c713ff36650d859118,forced_choice,280,370,"Group interaction",15,"Social activity",true,"Self-starting",69,"Initiative",true,"Group interaction",15,"Social activity",true,"Self-starting",69,"Initiative",true,1207,,,,,,,,,
668d47c713ff36650d859118,forced_choice,281,370,"Resilience",28,"Resilience",false,"Regulating feelings",29,"Managing emotions",true,"Resilience",28,"Resilience",false,"Regulating feelings",29,"Managing emotions",true,870,,,,,,,,,
668d47c713ff36650d859118,forced_choice,282,370,"Exhaustion",85,"Sleep and fatigue",true,"Assisting others",63,"Helpfulness",true,"Assisting others",63,"Helpfulness",true,"Exhaustion",85,"Sleep and fatigue",true,2282,,,,,,,,,
668d47c713ff36650d859118,forced_choice,283,370,"Play",19,"Play",false,"Group interaction",15,"Social activity",true,"Play",19,"Play",false,"Group interaction",15,"Social activity",true,1190,,,,,,,,,
668d47c713ff36650d859118,forced_choice,284,370,"Belief in oneself",80,"Self-confidence",true,"Drive or ambition",54,"Motivation",true,"Drive or ambition",54,"Motivation",true,"Belief in oneself",80,"Self-confidence",true,1588,,,,,,,,,
668d47c713ff36650d859118,forced_choice,285,370,"Situational awareness",7,"Perception",true,"Self-starting",69,"Initiative",true,"Self-starting",69,"Initiative",true,"Situational awareness",7,"Perception",true,2560,,,,,,,,,
668d47c713ff36650d859118,forced_choice,286,370,"Working for outcomes",45,"Setting and striving for goals",true,"Perseverance",71,"Perseverance",false,"Perseverance",71,"Perseverance",false,"Working for outcomes",45,"Setting and striving for goals",true,1297,,,,,,,,,
668d47c713ff36650d859118,forced_choice,287,370,"Group interaction",15,"Social activity",true,"Regulating feelings",29,"Managing emotions",true,"Regulating feelings",29,"Managing emotions",true,"Group interaction",15,"Social activity",true,1383,,,,,,,,,
668d47c713ff36650d859118,forced_choice,288,370,"Perseverance",71,"Perseverance",false,"Self-advocacy",81,"Self-advocacy",false,"Perseverance",71,"Perseverance",false,"Self-advocacy",81,"Self-advocacy",false,1149,,,,,,,,,
668d47c713ff36650d859118,forced_choice,289,370,"Working for outcomes",45,"Setting and striving for goals",true,"Directness",70,"Assertiveness",true,"Working for outcomes",45,"Setting and striving for goals",true,"Directness",70,"Assertiveness",true,1704,,,,,,,,,
668d47c713ff36650d859118,forced_choice,290,370,"Assisting others",63,"Helpfulness",true,"Frustration tolerance",62,"Patience",true,"Frustration tolerance",62,"Patience",true,"Assisting others",63,"Helpfulness",true,3197,,,,,,,,,
668d47c713ff36650d859118,forced_choice,291,370,"Directness",70,"Assertiveness",true,"Penmanship",53,"Writing",true,"Penmanship",53,"Writing",true,"Directness",70,"Assertiveness",true,3212,,,,,,,,,
668d47c713ff36650d859118,forced_choice,292,370,"Task initiation",46,"Task initiation",false,"Drive or ambition",54,"Motivation",true,"Task initiation",46,"Task initiation",false,"Drive or ambition",54,"Motivation",true,1788,,,,,,,,,
668d47c713ff36650d859118,forced_choice,293,370,"Compassion",64,"Kindness and caring",true,"Inbound communication",2,"Receptive communication",true,"Compassion",64,"Kindness and caring",true,"Inbound communication",2,"Receptive communication",true,1602,,,,,,,,,
668d47c713ff36650d859118,forced_choice,294,370,"Regulating feelings",29,"Managing emotions",true,"Assisting others",63,"Helpfulness",true,"Regulating feelings",29,"Managing emotions",true,"Assisting others",63,"Helpfulness",true,2450,,,,,,,,,
668d47c713ff36650d859118,forced_choice,295,370,"Self-advocacy",81,"Self-advocacy",false,"Belief in oneself",80,"Self-confidence",true,"Self-advocacy",81,"Self-advocacy",false,"Belief in oneself",80,"Self-confidence",true,1384,,,,,,,,,
668d47c713ff36650d859118,forced_choice,296,370,"Text comprehension",52,"Reading",true,"Self-awareness",76,"Self-awareness",false,"Text comprehension",52,"Reading",true,"Self-awareness",76,"Self-awareness",false,826,,,,,,,,,
668d47c713ff36650d859118,forced_choice,297,370,"Independence",68,"Independence",false,"Relationships with teachers",11,"Relationships with teachers",false,"Independence",68,"Independence",false,"Relationships with teachers",11,"Relationships with teachers",false,1010,,,,,,,,,
668d47c713ff36650d859118,forced_choice,298,370,"Inbound communication",2,"Receptive communication",true,"Self-starting",69,"Initiative",true,"Inbound communication",2,"Receptive communication",true,"Self-starting",69,"Initiative",true,1383,,,,,,,,,
668d47c713ff36650d859118,forced_choice,299,370,"Text comprehension",52,"Reading",true,"Regulating feelings",29,"Managing emotions",true,"Text comprehension",52,"Reading",true,"Regulating feelings",29,"Managing emotions",true,864,,,,,,,,,
668d47c713ff36650d859118,forced_choice,300,370,"Self-advocacy",81,"Self-advocacy",false,"Self-awareness",76,"Self-awareness",false,"Self-awareness",76,"Self-awareness",false,"Self-advocacy",81,"Self-advocacy",false,2988,,,,,,,,,
668d47c713ff36650d859118,forced_choice,301,370,"Courteous",61,"Politeness",true,"Academic performance",88,"Academic performance",false,"Academic performance",88,"Academic performance",false,"Courteous",61,"Politeness",true,1704,,,,,,,,,
668d47c713ff36650d859118,forced_choice,302,370,"Assisting others",63,"Helpfulness",true,"Penmanship",53,"Writing",true,"Assisting others",63,"Helpfulness",true,"Penmanship",53,"Writing",true,1222,,,,,,,,,
668d47c713ff36650d859118,forced_choice,303,370,"Drug intake",87,"Substance use",true,"Group interaction",15,"Social activity",true,"Group interaction",15,"Social activity",true,"Drug intake",87,"Substance use",true,1407,,,,,,,,,
668d47c713ff36650d859118,forced_choice,304,370,"Self-awareness",76,"Self-awareness",false,"Group interaction",15,"Social activity",true,"Self-awareness",76,"Self-awareness",false,"Group interaction",15,"Social activity",true,2126,,,,,,,,,
668d47c713ff36650d859118,forced_choice,305,370,"Situational awareness",7,"Perception",true,"Courteous",61,"Politeness",true,"Situational awareness",7,"Perception",true,"Courteous",61,"Politeness",true,7947,,,,,,,,,
668d47c713ff36650d859118,forced_choice,306,370,"Compassion",64,"Kindness and caring",true,"Courteous",61,"Politeness",true,"Compassion",64,"Kindness and caring",true,"Courteous",61,"Politeness",true,1035,,,,,,,,,
668d47c713ff36650d859118,forced_choice,307,370,"Perseverance",71,"Perseverance",false,"Drug intake",87,"Substance use",true,"Perseverance",71,"Perseverance",false,"Drug intake",87,"Substance use",true,949,,,,,,,,,
668d47c713ff36650d859118,forced_choice,308,370,"Penmanship",53,"Writing",true,"Resilience",28,"Resilience",false,"Resilience",28,"Resilience",false,"Penmanship",53,"Writing",true,1161,,,,,,,,,
668d47c713ff36650d859118,forced_choice,309,370,"Working for outcomes",45,"Setting and striving for goals",true,"Regulating feelings",29,"Managing emotions",true,"Regulating feelings",29,"Managing emotions",true,"Working for outcomes",45,"Setting and striving for goals",true,1907,,,,,,,,,
668d47c713ff36650d859118,forced_choice,310,370,"Play",19,"Play",false,"Compassion",64,"Kindness and caring",true,"Play",19,"Play",false,"Compassion",64,"Kindness and caring",true,1106,,,,,,,,,
668d47c713ff36650d859118,forced_choice,311,370,"Working for outcomes",45,"Setting and striving for goals",true,"Exhaustion",85,"Sleep and fatigue",true,"Working for outcomes",45,"Setting and striving for goals",true,"Exhaustion",85,"Sleep and fatigue",true,4505,,,,,,,,,
668d47c713ff36650d859118,forced_choice,312,370,"Belief in oneself",80,"Self-confidence",true,"Drug intake",87,"Substance use",true,"Belief in oneself",80,"Self-confidence",true,"Drug intake",87,"Substance use",true,1060,,,,,,,,,
668d47c713ff36650d859118,forced_choice,313,370,"Situational awareness",7,"Perception",true,"Exhaustion",85,"Sleep and fatigue",true,"Situational awareness",7,"Perception",true,"Exhaustion",85,"Sleep and fatigue",true,1122,,,,,,,,,
668d47c713ff36650d859118,forced_choice,314,370,"Resilience",28,"Resilience",false,"Relationships with teachers",11,"Relationships with teachers",false,"Resilience",28,"Resilience",false,"Relationships with teachers",11,"Relationships with teachers",false,929,,,,,,,,,
668d47c713ff36650d859118,forced_choice,315,370,"Independence",68,"Independence",false,"Working for outcomes",45,"Setting and striving for goals",true,"Independence",68,"Independence",false,"Working for outcomes",45,"Setting and striving for goals",true,1268,,,,,,,,,
668d47c713ff36650d859118,forced_choice,316,370,"Assisting others",63,"Helpfulness",true,"Perseverance",71,"Perseverance",false,"Perseverance",71,"Perseverance",false,"Assisting others",63,"Helpfulness",true,1265,,,,,,,,,
668d47c713ff36650d859118,forced_choice,317,370,"Regulating feelings",29,"Managing emotions",true,"Self-awareness",76,"Self-awareness",false,"Regulating feelings",29,"Managing emotions",true,"Self-awareness",76,"Self-awareness",false,1126,,,,,,,,,
668d47c713ff36650d859118,forced_choice,318,370,"Academic performance",88,"Academic performance",false,"Relationships with teachers",11,"Relationships with teachers",false,"Academic performance",88,"Academic performance",false,"Relationships with teachers",11,"Relationships with teachers",false,1533,,,,,,,,,
668d47c713ff36650d859118,forced_choice,319,370,"Frustration tolerance",62,"Patience",true,"Resilience",28,"Resilience",false,"Resilience",28,"Resilience",false,"Frustration tolerance",62,"Patience",true,1825,,,,,,,,,
668d47c713ff36650d859118,forced_choice,320,370,"Self-awareness",76,"Self-awareness",false,"Academic performance",88,"Academic performance",false,"Self-awareness",76,"Self-awareness",false,"Academic performance",88,"Academic performance",false,1272,,,,,,,,,
668d47c713ff36650d859118,forced_choice,321,370,"Working for outcomes",45,"Setting and striving for goals",true,"Penmanship",53,"Writing",true,"Working for outcomes",45,"Setting and striving for goals",true,"Penmanship",53,"Writing",true,1444,,,,,,,,,
668d47c713ff36650d859118,forced_choice,322,370,"Compassion",64,"Kindness and caring",true,"Directness",70,"Assertiveness",true,"Compassion",64,"Kindness and caring",true,"Directness",70,"Assertiveness",true,1131,,,,,,,,,
668d47c713ff36650d859118,forced_choice,323,370,"Self-awareness",76,"Self-awareness",false,"Assisting others",63,"Helpfulness",true,"Self-awareness",76,"Self-awareness",false,"Assisting others",63,"Helpfulness",true,1793,,,,,,,,,
668d47c713ff36650d859118,forced_choice,324,370,"Inbound communication",2,"Receptive communication",true,"Situational awareness",7,"Perception",true,"Inbound communication",2,"Receptive communication",true,"Situational awareness",7,"Perception",true,1767,,,,,,,,,
