user_id,task,trial_index,subset_index,left_term,left_construct_id,left_canonical,left_is_synonym,right_term,right_construct_id,right_canonical,right_is_synonym,chosen_term,chosen_construct_id,chosen_canonical,chosen_is_synonym,unchosen_term,unchosen_construct_id,unchosen_canonical,unchosen_is_synonym,response_time,correct_word,chosen_word,passed,grade_levels,special_needs,school_type,experience,class_size,country
66952022eeb1290c2d6564f7,demographics,,,,,,,,,,,,,,,,,,,,,,,"middle","yes","public","2-5",">25","South Africa"
66952022eeb1290c2d6564f7,forced_choice,0,198,"Reasoning ability",35,"Reasoning ability",false,"Emotional well-being",84,"Emotional well-being",false,"Reasoning ability",35,"Reasoning ability",false,"Emotional well-being",84,"Emotional well-being",false,20191,,,,,,,,,
66952022eeb1290c2d6564f7,forced_choice,1,198,"Prospective view",72,"Future outlook",true,"Receptive communication",2,"Receptive communication",false,"Receptive communication",2,"Receptive communication",false,"Prospective view",72,"Future outlook",true,4490,,,,,,,,,
66952022eeb1290c2d6564f7,forced_choice,2,198,"Exertion",74,"Effort",true,"Restraint",75,"Self-control",true,"Exertion",74,"Effort",true,"Restraint",75,"Self-control",true,4048,,,,,,,,,
66952022eeb1290c2d6564f7,forced_choice,3,198,"Self-awareness",76,"Self-awareness",false,"Receptive communication",2,"Receptive communication",false,"Self-awareness",76,"Self-awareness",false,"Receptive communication",2,"Receptive communication",false,3378,,,,,,,,,
66952022eeb1290c2d6564f7,forced_choice,4,198,"Respectful",61,"Politeness",true,"Restraint",75,"Self-control",true,"Respectful",61,"Politeness",true,"Restraint",75,"Self-control",true,1598,,,,,,,,,
66952022eeb1290c2d6564f7,forced_choice,5,198,"Prospective view",72,"Future outlook",true,"Reasoning ability",35,"Reasoning ability",false,"Reasoning ability",35,"Reasoning ability",false,"Prospective view",72,"Future outlook",true,3919,,,,,,,,,
66952022eeb1290c2d6564f7,forced_choice,6,198,"Gender expression",18,"Sexual behavior",true,"Respectful",61,"Politeness",true,"Gender expression",18,"Sexual behavior",true,"Respectful",61,"Politeness",true,3998,,,,,,,,,
66952022eeb1290c2d6564f7,forced_choice,7,198,"Prospective view",72,"Future outlook",true,"Exertion",74,"Effort",true,"Prospective view",72,"Future outlook",true,"Exertion",74,"Effort",true,1861,,,,,,,,,
66952022eeb1290c2d6564f7,forced_choice,8,198,"Collaboration with others",12,"Social cooperation",true,"Respectful",61,"Politeness",true,"Collaboration with others",12,"Social cooperation",true,"Respectful",61,"Politeness",true,1681,,,,,,,,,
66952022eeb1290c2d6564f7,forced_choice,9,198,"Introspection",78,"Self-reflection",true,"Reasoning ability",35,"Reasoning ability",false,"Reasoning ability",35,"Reasoning ability",false,"Introspection",78,"Self-reflection",true,2486,,,,,,,,,
66952022eeb1290c2d6564f7,forced_choice,10,198,"Relationships with teachers",11,"Relationships with teachers",false,"Observation",7,"Perception",true,"Relationships with teachers",11,"Relationships with teachers",false,"Observation",7,"Perception",true,2031,,,,,,,,,
66952022eeb1290c2d6564f7,forced_choice,11,198,"Gender expression",18,"Sexual behavior",true,"Observation",7,"Perception",true,"Observation",7,"Perception",true,"Gender expression",18,"Sexual behavior",true,1965,,,,,,,,,
66952022eeb1290c2d6564f7,forced_choice,12,198,"Restraint",75,"Self-control",true,"Justice",60,"Fairness",true,"Justice",60,"Fairness",true,"Restraint",75,"Self-control",true,2411,,,,,,,,,
66952022eeb1290c2d6564f7,forced_choice,13,198,"Introspection",78,"Self-reflection",true,"Accountability",66,"Responsibility",true,"Accountability",66,"Responsibility",true,"Introspection",78,"Self-reflection",true,1565,,,,,,,,,
66952022eeb1290c2d6564f7,forced_choice,14,198,"Self-awareness",76,"Self-awareness",false,"Emotional well-being",84,"Emotional well-being",false,"Self-awareness",76,"Self-awareness",false,"Emotional well-being",84,"Emotional well-being",false,2452,,,,,,,,,
66952022eeb1290c2d6564f7,forced_choice,15,198,"Helpfulness",63,"Helpfulness",false,"Observation",7,"Perception",true,"Helpfulness",63,"Helpfulness",false,"Observation",7,"Perception",true,2911,,,,,,,,,
66952022eeb1290c2d6564f7,forced_choice,16,198,"Reasoning ability",35,"Reasoning ability",false,"Self-acceptance",79,"Self-acceptance",false,"Self-acceptance",79,"Self-acceptance",false,"Reasoning ability",35,"Reasoning ability",false,1969,,,,,,,,,
66952022eeb1290c2d6564f7,forced_choice,17,198,"Exertion",74,"Effort",true,"Gender expression",18,"Sexual behavior",true,"Gender expression",18,"Sexual behavior",true,"Exertion",74,"Effort",true,2611,,,,,,,,,
66952022eeb1290c2d6564f7,forced_choice,18,198,"Reasoning ability",35,"Reasoning ability",false,"Relationships with teachers",11,"Relationships with teachers",false,"Relationships with teachers",11,"Relationships with teachers",false,"Reasoning ability",35,"Reasoning ability",false,1561,,,,,,,,,
66952022eeb1290c2d6564f7,forced_choice,19,198,"Controlling feelings",29,"Managing emotions",true,"Respectful",61,"Politeness",true,"Respectful",61,"Politeness",true,"Controlling feelings",29,"Managing emotions",true,15134,,,,,,,,,
66952022eeb1290c2d6564f7,forced_choice,20,198,"Receptive communication",2,"Receptive communication",false,"Innovative thoughts",50,"Creativity and imagination",true,"Receptive communication",2,"Receptive communication",false,"Innovative thoughts",50,"Creativity and imagination",true,3348,,,,,,,,,
66952022eeb1290c2d6564f7,forced_choice,21,198,"Restraint",75,"Self-control",true,"Emotional well-being",84,"Emotional well-being",false,"Emotional well-being",84,"Emotional well-being",false,"Restraint",75,"Self-control",true,1320,,,,,,,,,
66952022eeb1290c2d6564f7,forced_choice,22,198,"Exertion",74,"Effort",true,"Accountability",66,"Responsibility",true,"Accountability",66,"Responsibility",true,"Exertion",74,"Effort",true,1326,,,,,,,,,
66952022eeb1290c2d6564f7,forced_choice,23,198,"Reasoning ability",35,"Reasoning ability",false,"Gender expression",18,"Sexual behavior",true,"Reasoning ability",35,"Reasoning ability",false,"Gender expression",18,"Sexual behavior",true,1519,,,,,,,,,
66952022eeb1290c2d6564f7,forced_choice,24,198,"Exertion",74,"Effort",true,"Self-acceptance",79,"Self-acceptance",false,"Self-acceptance",79,"Self-acceptance",false,"Exertion",74,"Effort",true,4896,,,,,,,,,
66952022eeb1290c2d6564f7,forced_choice,25,198,"Receptive communication",2,"Receptive communication",false,"Gender expression",18,"Sexual behavior",true,"Gender expression",18,"Sexual behavior",true,"Receptive communication",2,"Receptive communication",false,4897,,,,,,,,,
66952022eeb1290c2d6564f7,forced_choice,26,198,"Planning",42,"Planning",false,"Self-awareness",76,"Self-awareness",false,"Planning",42,"Planning",false,"Self-awareness",76,"Self-awareness",false,1936,,,,,,,,,
66952022eeb1290c2d6564f7,forced_choice,27,198,"Helpfulness",63,"Helpfulness",false,"Reasoning ability",35,"Reasoning ability",false,"Helpfulness",63,"Helpfulness",false,"Reasoning ability",35,"Reasoning ability",false,1578,,,,,,,,,
66952022eeb1290c2d6564f7,forced_choice,28,198,"Accountability",66,"Responsibility",true,"Innovative thoughts",50,"Creativity and imagination",true,"Innovative thoughts",50,"Creativity and imagination",true,"Accountability",66,"Responsibility",true,1112,,,,,,,,,
66952022eeb1290c2d6564f7,forced_choice,29,198,"Accountability",66,"Responsibility",true,"Restraint",75,"Self-control",true,"Accountability",66,"Responsibility",true,"Restraint",75,"Self-control",true,787,,,,,,,,,
66952022eeb1290c2d6564f7,forced_choice,30,198,"Prospective view",72,"Future outlook",true,"Gender expression",18,"Sexual behavior",true,"Prospective view",72,"Future outlook",true,"Gender expression",18,"Sexual behavior",true,2027,,,,,,,,,
66952022eeb1290c2d6564f7,forced_choice,31,198,"Innovative thoughts",50,"Creativity and imagination",true,"Emotional well-being",84,"Emotional well-being",false,"Emotional well-being",84,"Emotional well-being",false,"Innovative thoughts",50,"Creativity and imagination",true,1271,,,,,,,,,
66952022eeb1290c2d6564f7,forced_choice,32,198,"Observation",7,"Perception",true,"Self-acceptance",79,"Self-acceptance",false,"Observation",7,"Perception",true,"Self-acceptance",79,"Self-acceptance",false,828,,,,,,,,,
66952022eeb1290c2d6564f7,forced_choice,33,198,"Restraint",75,"Self-control",true,"Planning",42,"Planning",false,"Planning",42,"Planning",false,"Restraint",75,"Self-control",true,1032,,,,,,,,,
66952022eeb1290c2d6564f7,forced_choice,34,198,"Standing up for oneself",81,"Self-advocacy",true,"Restraint",75,"Self-control",true,"Standing up for oneself",81,"Self-advocacy",true,"Restraint",75,"Self-control",true,1598,,,,,,,,,
66952022eeb1290c2d6564f7,forced_choice,35,198,"Innovative thoughts",50,"Creativity and imagination",true,"Self-acceptance",79,"Self-acceptance",false,"Innovative thoughts",50,"Creativity and imagination",true,"Self-acceptance",79,"Self-acceptance",false,1711,,,,,,,,,
66952022eeb1290c2d6564f7,forced_choice,36,198,"Receptive communication",2,"Receptive communication",false,"Planning",42,"Planning",false,"Planning",42,"Planning",false,"Receptive communication",2,"Receptive communication",false,1618,,,,,,,,,
66952022eeb1290c2d6564f7,forced_choice,37,198,"Prospective view",72,"Future outlook",true,"Emotional well-being",84,"Emotional well-being",false,"Prospective view",72,"Future outlook",true,"Emotional well-being",84,"Emotional well-being",false,1332,,,,,,,,,
66952022eeb1290c2d6564f7,forced_choice,38,198,"Ability to wait",62,"Patience",true,"Gender expression",18,"Sexual behavior",true,"Ability to wait",62,"Patience",true,"Gender expression",18,"Sexual behavior",true,2327,,,,,,,,,
66952022eeb1290c2d6564f7,forced_choice,39,198,"Standing up for oneself",81,"Self-advocacy",true,"Initiative",69,"Initiative",false,"Standing up for oneself",81,"Self-advocacy",true,"Initiative",69,"Initiative",false,1599,,,,,,,,,
66952022eeb1290c2d6564f7,forced_choice,40,198,"Mood",32,"Mood",false,"Standing up for oneself",81,"Self-advocacy",true,"Standing up for oneself",81,"Self-advocacy",true,"Mood",32,"Mood",false,1352,,,,,,,,,
66952022eeb1290c2d6564f7,forced_choice,41,198,"Self-acceptance",79,"Self-acceptance",false,"Receptive communication",2,"Receptive communication",false,"Self-acceptance",79,"Self-acceptance",false,"Receptive communication",2,"Receptive communication",false,1782,,,,,,,,,
66952022eeb1290c2d6564f7,forced_choice,42,198,"Self-awareness",76,"Self-awareness",false,"Self-acceptance",79,"Self-acceptance",false,"Self-awareness",76,"Self-awareness",false,"Self-acceptance",79,"Self-acceptance",false,3062,,,,,,,,,
66952022eeb1290c2d6564f7,forced_choice,43,198,"Mood",32,"Mood",false,"Prospective view",72,"Future outlook",true,"Prospective view",72,"Future outlook",true,"Mood",32,"Mood",false,918,,,,,,,,,
66952022eeb1290c2d6564f7,forced_choice,44,198,"Restraint",75,"Self-control",true,"Introspection",78,"Self-reflection",true,"Introspection",78,"Self-reflection",true,"Restraint",75,"Self-control",true,1241,,,,,,,,,
66952022eeb1290c2d6564f7,forced_choice,45,198,"Reasoning ability",35,"Reasoning ability",false,"Justice",60,"Fairness",true,"Reasoning ability",35,"Reasoning ability",false,"Justice",60,"Fairness",true,1971,,,,,,,,,
66952022eeb1290c2d6564f7,forced_choice,46,198,"Respectful",61,"Politeness",true,"Self-reliance",68,"Independence",true,"Self-reliance",68,"Independence",true,"Respectful",61,"Politeness",true,1785,,,,,,,,,
66952022eeb1290c2d6564f7,forced_choice,47,198,"Collaboration with others",12,"Social cooperation",true,"Observation",7,"Perception",true,"Collaboration with others",12,"Social cooperation",true,"Observation",7,"Perception",true,1132,,,,,,,,,
66952022eeb1290c2d6564f7,forced_choice,48,198,"Controlling feelings",29,"Managing emotions",true,"Planning",42,"Planning",false,"Controlling feelings",29,"Managing emotions",true,"Planning",42,"Planning",false,1029,,,,,,,,,
66952022eeb1290c2d6564f7,forced_choice,49,198,"Drug consumption",87,"Substance use",true,"Receptive communication",2,"Receptive communication",false,"Receptive communication",2,"Receptive communication",false,"Drug consumption",87,"Substance use",true,1120,,,,,,,,,
66952022eeb1290c2d6564f7,forced_choice,50,198,"Introspection",78,"Self-reflection",true,"Initiative",69,"Initiative",false,"Introspection",78,"Self-reflection",true,"Initiative",69,"Initiative",false,982,,,,,,,,,
66952022eeb1290c2d6564f7,forced_choice,51,198,"Controlling feelings",29,"Managing emotions",true,"Mood",32,"Mood",false,"Controlling feelings",29,"Managing emotions",true,"Mood",32,"Mood",false,1078,,,,,,,,,
66952022eeb1290c2d6564f7,forced_choice,52,198,"Prospective view",72,"Future outlook",true,"Standing up for oneself",81,"Self-advocacy",true,"Prospective view",72,"Future outlook",true,"Standing up for oneself",81,"Self-advocacy",true,1450,,,,,,,,,
66952022eeb1290c2d6564f7,forced_choice,53,198,"Planning",42,"Planning",false,"Mood",32,"Mood",false,"Planning",42,"Planning",false,"Mood",32,"Mood",false,1531,,,,,,,,,
66952022eeb1290c2d6564f7,forced_choice,54,198,"Prospective view",72,"Future outlook",true,"Observation",7,"Perception",true,"Prospective view",72,"Future outlook",true,"Observation",7,"Perception",true,964,,,,,,,,,
66952022eeb1290c2d6564f7,attention_check,55,,,,,,,,,,,,,,,,,,6018,"Managing emotions","Managing emotions",true,,,,,,
66952022eeb1290c2d6564f7,forced_choice,55,198,"Self-awareness",76,"Self-awareness",false,"Introspection",78,"Self-reflection",true,"Self-awareness",76,"Self-awareness",false,"Introspection",78,"Self-reflection",true,3790,,,,,,,,,
66952022eeb1290c2d6564f7,forced_choice,56,198,"Controlling feelings",29,"Managing emotions",true,"Reasoning ability",35,"Reasoning ability",false,"Reasoning ability",35,"Reasoning ability",false,"Controlling feelings",29,"Managing emotions",true,2452,,,,,,,,,
66952022eeb1290c2d6564f7,forced_choice,57,198,"Receptive communication",2,"Receptive communication",false,"Mood",32,"Mood",false,"Receptive communication",2,"Receptive communication",false,"Mood",32,"Mood",false,1765,,,,,,,,,
66952022eeb1290c2d6564f7,forced_choice,58,198,"Mood",32,"Mood",false,"Self-awareness",76,"Self-awareness",false,"Self-awareness",76,"Self-awareness",false,"Mood",32,"Mood",false,1249,,,,,,,,,
66952022eeb1290c2d6564f7,forced_choice,59,198,"Self-reliance",68,"Independence",true,"Collaboration with others",12,"Social cooperation",true,"Collaboration with others",12,"Social cooperation",true,"Self-reliance",68,"Independence",true,2761,,,,,,,,,
66952022eeb1290c2d6564f7,forced_choice,60,198,"Introspection",78,"Self-reflection",true,"Mood",32,"Mood",false,"Introspection",78,"Self-reflection",true,"Mood",32,"Mood",false,2602,,,,,,,,,
66952022eeb1290c2d6564f7,forced_choice,61,198,"Introspection",78,"Self-reflection",true,"Collaboration with others",12,"Social cooperation",true,"Collaboration with others",12,"Social cooperation",true,"Introspection",78,"Self-reflection",true,2432,,,,,,,,,
66952022eeb1290c2d6564f7,forced_choice,62,198,"Controlling feelings",29,"Managing emotions",true,"Accountability",66,"Responsibility",true,"Accountability",66,"Responsibility",true,"Controlling feelings",29,"Managing emotions",true,1461,,,,,,,,,
66952022eeb1290c2d6564f7,forced_choice,63,198,"Self-reliance",68,"Independence",true,"Restraint",75,"Self-control",true,"Self-reliance",68,"Independence",true,"Restraint",75,"Self-control",true,1287,,,,,,,,,
66952022eeb1290c2d6564f7,forced_choice,64,198,"Mood",32,"Mood",false,"Restraint",75,"Self-control",true,"Restraint",75,"Self-control",true,"Mood",32,"Mood",false,1381,,,,,,,,,
66952022eeb1290c2d6564f7,forced_choice,65,198,"Innovative thoughts",50,"Creativity and imagination",true,"Controlling feelings",29,"Managing emotions",true,"Controlling feelings",29,"Managing emotions",true,"Innovative thoughts",50,"Creativity and imagination",true,2145,,,,,,,,,
66952022eeb1290c2d6564f7,forced_choice,66,198,"Controlling feelings",29,"Managing emotions",true,"Prospective view",72,"Future outlook",true,"Prospective view",72,"Future outlook",true,"Controlling feelings",29,"Managing emotions",true,4998,,,,,,,,,
66952022eeb1290c2d6564f7,forced_choice,67,198,"Drug consumption",87,"Substance use",true,"Controlling feelings",29,"Managing emotions",true,"Drug consumption",87,"Substance use",true,"Controlling feelings",29,"Managing emotions",true,3135,,,,,,,,,
66952022eeb1290c2d6564f7,forced_choice,68,198,"Self-reliance",68,"Independence",true,"Controlling feelings",29,"Managing emotions",true,"Controlling feelings",29,"Managing emotions",true,"Self-reliance",68,"Independence",true,3498,,,,,,,,,
66952022eeb1290c2d6564f7,forced_choice,69,198,"Receptive communication",2,"Receptive communication",false,"Respectful",61,"Politeness",true,"Receptive communication",2,"Receptive communication",false,"Respectful",61,"Politeness",true,3298,,,,,,,,,
66952022eeb1290c2d6564f7,forced_choice,70,198,"Receptive communication",2,"Receptive communication",false,"Accountability",66,"Responsibility",true,"Accountability",66,"Responsibility",true,"Receptive communication",2,"Receptive communication",false,2031,,,,,,,,,
66952022eeb1290c2d6564f7,forced_choice,71,198,"Exertion",74,"Effort",true,"Mood",32,"Mood",false,"Exertion",74,"Effort",true,"Mood",32,"Mood",false,2347,,,,,,,,,
66952022eeb1290c2d6564f7,forced_choice,72,198,"Initiative",69,"Initiative",false,"Emotional well-being",84,"Emotional well-being",false,"Initiative",69,"Initiative",false,"Emotional well-being",84,"Emotional well-being",false,1294,,,,,,,,,
66952022eeb1290c2d6564f7,forced_choice,73,198,"Ability to wait",62,"Patience",true,"Self-reliance",68,"Independence",true,"Ability to wait",62,"Patience",true,"Self-reliance",68,"Independence",true,2181,,,,,,,,,
66952022eeb1290c2d6564f7,forced_choice,74,198,"Innovative thoughts",50,"Creativity and imagination",true,"Relationships with teachers",11,"Relationships with teachers",false,"Relationships with teachers",11,"Relationships with teachers",false,"Innovative thoughts",50,"Creativity and imagination",true,1469,,,,,,,,,
66952022eeb1290c2d6564f7,forced_choice,75,198,"Receptive communication",2,"Receptive communication",false,"Ability to wait",62,"Patience",true,"Receptive communication",2,"Receptive communication",false,"Ability to wait",62,"Patience",true,1849,,,,,,,,,
66952022eeb1290c2d6564f7,forced_choice,76,198,"Helpfulness",63,"Helpfulness",false,"Gender expression",18,"Sexual behavior",true,"Helpfulness",63,"Helpfulness",false,"Gender expression",18,"Sexual behavior",true,1878,,,,,,,,,
66952022eeb1290c2d6564f7,forced_choice,77,198,"Self-reliance",68,"Independence",true,"Accountability",66,"Responsibility",true,"Accountability",66,"Responsibility",true,"Self-reliance",68,"Independence",true,1802,,,,,,,,,
66952022eeb1290c2d6564f7,forced_choice,78,198,"Planning",42,"Planning",false,"Standing up for oneself",81,"Self-advocacy",true,"Planning",42,"Planning",false,"Standing up for oneself",81,"Self-advocacy",true,1432,,,,,,,,,
66952022eeb1290c2d6564f7,forced_choice,79,198,"Innovative thoughts",50,"Creativity and imagination",true,"Restraint",75,"Self-control",true,"Innovative thoughts",50,"Creativity and imagination",true,"Restraint",75,"Self-control",true,1412,,,,,,,,,
66952022eeb1290c2d6564f7,forced_choice,80,198,"Introspection",78,"Self-reflection",true,"Receptive communication",2,"Receptive communication",false,"Receptive communication",2,"Receptive communication",false,"Introspection",78,"Self-reflection",true,1303,,,,,,,,,
66952022eeb1290c2d6564f7,forced_choice,81,198,"Ability to wait",62,"Patience",true,"Mood",32,"Mood",false,"Ability to wait",62,"Patience",true,"Mood",32,"Mood",false,1564,,,,,,,,,
66952022eeb1290c2d6564f7,forced_choice,82,198,"Prospective view",72,"Future outlook",true,"Drug consumption",87,"Substance use",true,"Prospective view",72,"Future outlook",true,"Drug consumption",87,"Substance use",true,1980,,,,,,,,,
66952022eeb1290c2d6564f7,forced_choice,83,198,"Receptive communication",2,"Receptive communication",false,"Observation",7,"Perception",true,"Receptive communication",2,"Receptive communication",false,"Observation",7,"Perception",true,1948,,,,,,,,,
66952022eeb1290c2d6564f7,forced_choice,84,198,"Controlling feelings",29,"Managing emotions",true,"Self-acceptance",79,"Self-acceptance",false,"Controlling feelings",29,"Managing emotions",true,"Self-acceptance",79,"Self-acceptance",false,2315,,,,,,,,,
66952022eeb1290c2d6564f7,forced_choice,85,198,"Gender expression",18,"Sexual behavior",true,"Mood",32,"Mood",false,"Gender expression",18,"Sexual behavior",true,"Mood",32,"Mood",false,1232,,,,,,,,,
66952022eeb1290c2d6564f7,forced_choice,86,198,"Controlling feelings",29,"Managing emotions",true,"Collaboration with others",12,"Social cooperation",true,"Collaboration with others",12,"Social cooperation",true,"Controlling feelings",29,"Managing emotions",true,1485,,,,,,,,,
66952022eeb1290c2d6564f7,forced_choice,87,198,"Innovative thoughts",50,"Creativity and imagination",true,"Drug consumption",87,"Substance use",true,"Innovative thoughts",50,"Creativity and imagination",true,"Drug consumption",87,"Substance use",true,1365,,,,,,,,,
66952022eeb1290c2d6564f7,forced_choice,88,198,"Exertion",74,"Effort",true,"Controlling feelings",29,"Managing emotions",true,"Controlling feelings",29,"Managing emotions",true,"Exertion",74,"Effort",true,1632,,,,,,,,,
66952022eeb1290c2d6564f7,forced_choice,89,198,"Initiative",69,"Initiative",false,"Gender expression",18,"Sexual behavior",true,"Gender expression",18,"Sexual behavior",true,"Initiative",69,"Initiative",false,1595,,,,,,,,,
66952022eeb1290c2d6564f7,forced_choice,90,198,"Controlling feelings",29,"Managing emotions",true,"Restraint",75,"Self-control",true,"Controlling feelings",29,"Managing emotions",true,"Restraint",75,"Self-control",true,3002,,,,,,,,,
66952022eeb1290c2d6564f7,forced_choice,91,198,"Planning",42,"Planning",false,"Prospective view",72,"Future outlook",true,"Prospective view",72,"Future outlook",true,"Planning",42,"Planning",false,1365,,,,,,,,,
66952022eeb1290c2d6564f7,forced_choice,92,198,"Initiative",69,"Initiative",false,"Restraint",75,"Self-control",true,"Initiative",69,"Initiative",false,"Restraint",75,"Self-control",true,1715,,,,,,,,,
66952022eeb1290c2d6564f7,forced_choice,93,198,"Self-awareness",76,"Self-awareness",false,"Standing up for oneself",81,"Self-advocacy",true,"Self-awareness",76,"Self-awareness",false,"Standing up for oneself",81,"Self-advocacy",true,2162,,,,,,,,,
66952022eeb1290c2d6564f7,forced_choice,94,198,"Drug consumption",87,"Substance use",true,"Planning",42,"Planning",false,"Planning",42,"Planning",false,"Drug consumption",87,"Substance use",true,1053,,,,,,,,,
66952022eeb1290c2d6564f7,forced_choice,95,198,"Self-awareness",76,"Self-awareness",false,"Collaboration with others",12,"Social cooperation",true,"Collaboration with others",12,"Social cooperation",true,"Self-awareness",76,"Self-awareness",false,1511,,,,,,,,,
66952022eeb1290c2d6564f7,forced_choice,96,198,"Respectful",61,"Politeness",true,"Self-acceptance",79,"Self-acceptance",false,"Self-acceptance",79,"Self-acceptance",false,"Respectful",61,"Politeness",true,2265,,,,,,,,,
66952022eeb1290c2d6564f7,forced_choice,97,198,"Drug consumption",87,"Substance use",true,"Emotional well-being",84,"Emotional well-being",false,"Emotional well-being",84,"Emotional well-being",false,"Drug consumption",87,"Substance use",true,1382,,,,,,,,,
66952022eeb1290c2d6564f7,forced_choice,98,198,"Respectful",61,"Politeness",true,"Reasoning ability",35,"Reasoning ability",false,"Respectful",61,"Politeness",true,"Reasoning ability",35,"Reasoning ability",false,2264,,,,,,,,,
66952022eeb1290c2d6564f7,forced_choice,99,198,"Justice",60,"Fairness",true,"Initiative",69,"Initiative",false,"Initiative",69,"Initiative",false,"Justice",60,"Fairness",true,1102,,,,,,,,,
66952022eeb1290c2d6564f7,forced_choice,100,198,"Emotional well-being",84,"Emotional well-being",false,"Accountability",66,"Responsibility",true,"Accountability",66,"Responsibility",true,"Emotional well-being",84,"Emotional well-being",false,1094,,,,,,,,,
66952022eeb1290c2d6564f7,forced_choice,101,198,"Planning",42,"Planning",false,"Relationships with teachers",11,"Relationships with teachers",false,"Relationships with teachers",11,"Relationships with teachers",false,"Planning",42,"Planning",false,1332,,,,,,,,,
66952022eeb1290c2d6564f7,forced_choice,102,198,"Initiative",69,"Initiative",false,"Helpfulness",63,"Helpfulness",false,"Initiative",69,"Initiative",false,"Helpfulness",63,"Helpfulness",false,3003,,,,,,,,,
66952022eeb1290c2d6564f7,forced_choice,103,198,"Respectful",61,"Politeness",true,"Initiative",69,"Initiative",false,"Respectful",61,"Politeness",true,"Initiative",69,"Initiative",false,1828,,,,,,,,,
66952022eeb1290c2d6564f7,forced_choice,104,198,"Restraint",75,"Self-control",true,"Observation",7,"Perception",true,"Observation",7,"Perception",true,"Restraint",75,"Self-control",true,1336,,,,,,,,,
66952022eeb1290c2d6564f7,forced_choice,105,198,"Accountability",66,"Responsibility",true,"Self-acceptance",79,"Self-acceptance",false,"Accountability",66,"Responsibility",true,"Self-acceptance",79,"Self-acceptance",false,1079,,,,,,,,,
66952022eeb1290c2d6564f7,forced_choice,106,198,"Planning",42,"Planning",false,"Self-acceptance",79,"Self-acceptance",false,"Self-acceptance",79,"Self-acceptance",false,"Planning",42,"Planning",false,2150,,,,,,,,,
66952022eeb1290c2d6564f7,forced_choice,107,198,"Relationships with teachers",11,"Relationships with teachers",false,"Collaboration with others",12,"Social cooperation",true,"Collaboration with others",12,"Social cooperation",true,"Relationships with teachers",11,"Relationships with teachers",false,2795,,,,,,,,,
66952022eeb1290c2d6564f7,forced_choice,108,198,"Collaboration with others",12,"Social cooperation",true,"Receptive communication",2,"Receptive communication",false,"Receptive communication",2,"Receptive communication",false,"Collaboration with others",12,"Social cooperation",true,2198,,,,,,,,,
66952022eeb1290c2d6564f7,forced_choice,109,198,"Observation",7,"Perception",true,"Self-awareness",76,"Self-awareness",false,"Self-awareness",76,"Self-awareness",false,"Observation",7,"Perception",true,2048,,,,,,,,,
66952022eeb1290c2d6564f7,attention_check,111,,,,,,,,,,,,,,,,,,3945,"Social skills","Social skills",true,,,,,,
66952022eeb1290c2d6564f7,forced_choice,110,198,"Introspection",78,"Self-reflection",true,"Controlling feelings",29,"Managing emotions",true,"Controlling feelings",29,"Managing emotions",true,"Introspection",78,"Self-reflection",true,2106,,,,,,,,,
66952022eeb1290c2d6564f7,forced_choice,111,198,"Relationships with teachers",11,"Relationships with teachers",false,"Emotional well-being",84,"Emotional well-being",false,"Relationships with teachers",11,"Relationships with teachers",false,"Emotional well-being",84,"Emotional well-being",false,1648,,,,,,,,,
66952022eeb1290c2d6564f7,forced_choice,112,198,"Drug consumption",87,"Substance use",true,"Accountability",66,"Responsibility",true,"Accountability",66,"Responsibility",true,"Drug consumption",87,"Substance use",true,1316,,,,,,,,,
66952022eeb1290c2d6564f7,forced_choice,113,198,"Self-awareness",76,"Self-awareness",false,"Helpfulness",63,"Helpfulness",false,"Helpfulness",63,"Helpfulness",false,"Self-awareness",76,"Self-awareness",false,962,,,,,,,,,
66952022eeb1290c2d6564f7,forced_choice,114,198,"Justice",60,"Fairness",true,"Self-reliance",68,"Independence",true,"Justice",60,"Fairness",true,"Self-reliance",68,"Independence",true,1685,,,,,,,,,
66952022eeb1290c2d6564f7,forced_choice,115,198,"Emotional well-being",84,"Emotional well-being",false,"Planning",42,"Planning",false,"Planning",42,"Planning",false,"Emotional well-being",84,"Emotional well-being",false,1432,,,,,,,,,
66952022eeb1290c2d6564f7,forced_choice,116,198,"Ability to wait",62,"Patience",true,"Introspection",78,"Self-reflection",true,"Introspection",78,"Self-reflection",true,"Ability to wait",62,"Patience",true,1611,,,,,,,,,
66952022eeb1290c2d6564f7,forced_choice,117,198,"Introspection",78,"Self-reflection",true,"Innovative thoughts",50,"Creativity and imagination",true,"Innovative thoughts",50,"Creativity and imagination",true,"Introspection",78,"Self-reflection",true,1912,,,,,,,,,
66952022eeb1290c2d6564f7,forced_choice,118,198,"Planning",42,"Planning",false,"Justice",60,"Fairness",true,"Planning",42,"Planning",false,"Justice",60,"Fairness",true,1435,,,,,,,,,
66952022eeb1290c2d6564f7,forced_choice,119,198,"Collaboration with others",12,"Social cooperation",true,"Exertion",74,"Effort",true,"Collaboration with others",12,"Social cooperation",true,"Exertion",74,"Effort",true,1078,,,,,,,,,
66952022eeb1290c2d6564f7,forced_choice,120,198,"Self-acceptance",79,"Self-acceptance",false,"Mood",32,"Mood",false,"Self-acceptance",79,"Self-acceptance",false,"Mood",32,"Mood",false,1048,,,,,,,,,
66952022eeb1290c2d6564f7,forced_choice,121,198,"Helpfulness",63,"Helpfulness",false,"Self-acceptance",79,"Self-acceptance",false,"Helpfulness",63,"Helpfulness",false,"Self-acceptance",79,"Self-acceptance",false,1881,,,,,,,,,
66952022eeb1290c2d6564f7,forced_choice,122,198,"Justice",60,"Fairness",true,"Controlling feelings",29,"Managing emotions",true,"Controlling feelings",29,"Managing emotions",true,"Justice",60,"Fairness",true,1335,,,,,,,,,
66952022eeb1290c2d6564f7,forced_choice,123,198,"Observation",7,"Perception",true,"Emotional well-being",84,"Emotional well-being",false,"Emotional well-being",84,"Emotional well-being",false,"Observation",7,"Perception",true,5461,,,,,,,,,
66952022eeb1290c2d6564f7,forced_choice,124,198,"Self-reliance",68,"Independence",true,"Self-awareness",76,"Self-awareness",false,"Self-awareness",76,"Self-awareness",false,"Self-reliance",68,"Independence",true,1815,,,,,,,,,
66952022eeb1290c2d6564f7,forced_choice,125,198,"Observation",7,"Perception",true,"Exertion",74,"Effort",true,"Observation",7,"Perception",true,"Exertion",74,"Effort",true,1800,,,,,,,,,
66952022eeb1290c2d6564f7,forced_choice,126,198,"Planning",42,"Planning",false,"Respectful",61,"Politeness",true,"Planning",42,"Planning",false,"Respectful",61,"Politeness",true,1048,,,,,,,,,
66952022eeb1290c2d6564f7,forced_choice,127,198,"Self-awareness",76,"Self-awareness",false,"Drug consumption",87,"Substance use",true,"Self-awareness",76,"Self-awareness",false,"Drug consumption",87,"Substance use",true,1232,,,,,,,,,
66952022eeb1290c2d6564f7,forced_choice,128,198,"Initiative",69,"Initiative",false,"Receptive communication",2,"Receptive communication",false,"Receptive communication",2,"Receptive communication",false,"Initiative",69,"Initiative",false,1752,,,,,,,,,
66952022eeb1290c2d6564f7,forced_choice,129,198,"Initiative",69,"Initiative",false,"Innovative thoughts",50,"Creativity and imagination",true,"Initiative",69,"Initiative",false,"Innovative thoughts",50,"Creativity and imagination",true,6099,,,,,,,,,
66952022eeb1290c2d6564f7,forced_choice,130,198,"Restraint",75,"Self-control",true,"Relationships with teachers",11,"Relationships with teachers",false,"Relationships with teachers",11,"Relationships with teachers",false,"Restraint",75,"Self-control",true,1398,,,,,,,,,
66952022eeb1290c2d6564f7,forced_choice,131,198,"Standing up for oneself",81,"Self-advocacy",true,"Respectful",61,"Politeness",true,"Respectful",61,"Politeness",true,"Standing up for oneself",81,"Self-advocacy",true,1645,,,,,,,,,
66952022eeb1290c2d6564f7,forced_choice,132,198,"Initiative",69,"Initiative",false,"Mood",32,"Mood",false,"Initiative",69,"Initiative",false,"Mood",32,"Mood",false,2650,,,,,,,,,
66952022eeb1290c2d6564f7,forced_choice,133,198,"Helpfulness",63,"Helpfulness",false,"Ability to wait",62,"Patience",true,"Ability to wait",62,"Patience",true,"Helpfulness",63,"Helpfulness",false,2002,,,,,,,,,
66952022eeb1290c2d6564f7,forced_choice,134,198,"Prospective view",72,"Future outlook",true,"Self-awareness",76,"Self-awareness",false,"Prospective view",72,"Future outlook",true,"Self-awareness",76,"Self-awareness",false,3881,,,,,,,,,
66952022eeb1290c2d6564f7,forced_choice,135,198,"Exertion",74,"Effort",true,"Reasoning ability",35,"Reasoning ability",false,"Reasoning ability",35,"Reasoning ability",false,"Exertion",74,"Effort",true,1182,,,,,,,,,
66952022eeb1290c2d6564f7,forced_choice,136,198,"Exertion",74,"Effort",true,"Initiative",69,"Initiative",false,"Initiative",69,"Initiative",false,"Exertion",74,"Effort",true,5862,,,,,,,,,
66952022eeb1290c2d6564f7,forced_choice,137,198,"Self-acceptance",79,"Self-acceptance",false,"Relationships with teachers",11,"Relationships with teachers",false,"Relationships with teachers",11,"Relationships with teachers",false,"Self-acceptance",79,"Self-acceptance",false,1399,,,,,,,,,
66952022eeb1290c2d6564f7,forced_choice,138,198,"Observation",7,"Perception",true,"Drug consumption",87,"Substance use",true,"Observation",7,"Perception",true,"Drug consumption",87,"Substance use",true,1135,,,,,,,,,
66952022eeb1290c2d6564f7,forced_choice,139,198,"Reasoning ability",35,"Reasoning ability",false,"Mood",32,"Mood",false,"Reasoning ability",35,"Reasoning ability",false,"Mood",32,"Mood",false,2145,,,,,,,,,
66952022eeb1290c2d6564f7,forced_choice,140,198,"Self-reliance",68,"Independence",true,"Reasoning ability",35,"Reasoning ability",false,"Reasoning ability",35,"Reasoning ability",false,"Self-reliance",68,"Independence",true,1768,,,,,,,,,
66952022eeb1290c2d6564f7,forced_choice,141,198,"Self-reliance",68,"Independence",true,"Observation",7,"Perception",true,"Observation",7,"Perception",true,"Self-reliance",68,"Independence",true,1963,,,,,,,,,
66952022eeb1290c2d6564f7,forced_choice,142,198,"Innovative thoughts",50,"Creativity and imagination",true,"Collaboration with others",12,"Social cooperation",true,"Collaboration with others",12,"Social cooperation",true,"Innovative thoughts",50,"Creativity and imagination",true,1148,,,,,,,,,
66952022eeb1290c2d6564f7,forced_choice,143,198,"Collaboration with others",12,"Social cooperation",true,"Standing up for oneself",81,"Self-advocacy",true,"Collaboration with others",12,"Social cooperation",true,"Standing up for oneself",81,"Self-advocacy",true,2953,,,,,,,,,
66952022eeb1290c2d6564f7,forced_choice,144,198,"Ability to wait",62,"Patience",true,"Prospective view",72,"Future outlook",true,"Prospective view",72,"Future outlook",true,"Ability to wait",62,"Patience",true,1415,,,,,,,,,
66952022eeb1290c2d6564f7,forced_choice,145,198,"Exertion",74,"Effort",true,"Drug consumption",87,"Substance use",true,"Exertion",74,"Effort",true,"Drug consumption",87,"Substance use",true,1296,,,,,,,,,
66952022eeb1290c2d6564f7,forced_choice,146,198,"Receptive communication",2,"Receptive communication",false,"Exertion",74,"Effort",true,"Receptive communication",2,"Receptive communication",false,"Exertion",74,"Effort",true,1110,,,,,,,,,
66952022eeb1290c2d6564f7,forced_choice,147,198,"Prospective view",72,"Future outlook",true,"Self-reliance",68,"Independence",true,"Prospective view",72,"Future outlook",true,"Self-reliance",68,"Independence",true,3665,,,,,,,,,
66952022eeb1290c2d6564f7,forced_choice,148,198,"Drug consumption",87,"Substance use",true,"Introspection",78,"Self-reflection",true,"Introspection",78,"Self-reflection",true,"Drug consumption",87,"Substance use",true,1287,,,,,,,,,
66952022eeb1290c2d6564f7,forced_choice,149,198,"Accountability",66,"Responsibility",true,"Justice",60,"Fairness",true,"Accountability",66,"Responsibility",true,"Justice",60,"Fairness",true,1931,,,,,,,,,
66952022eeb1290c2d6564f7,forced_choice,150,198,"Emotional well-being",84,"Emotional well-being",false,"Standing up for oneself",81,"Self-advocacy",true,"Emotional well-being",84,"Emotional well-being",false,"Standing up for oneself",81,"Self-advocacy",true,6227,,,,,,,,,
66952022eeb1290c2d6564f7,forced_choice,151,198,"Initiative",69,"Initiative",false,"Controlling feelings",29,"Managing emotions",true,"Controlling feelings",29,"Managing emotions",true,"Initiative",69,"Initiative",false,3236,,,,,,,,,
66952022eeb1290c2d6564f7,forced_choice,152,198,"Accountability",66,"Responsibility",true,"Respectful",61,"Politeness",true,"Accountability",66,"Responsibility",true,"Respectful",61,"Politeness",true,3848,,,,,,,,,
66952022eeb1290c2d6564f7,forced_choice,153,198,"Mood",32,"Mood",false,"Accountability",66,"Responsibility",true,"Accountability",66,"Responsibility",true,"Mood",32,"Mood",false,998,,,,,,,,,
66952022eeb1290c2d6564f7,forced_choice,154,198,"Justice",60,"Fairness",true,"Drug consumption",87,"Substance use",true,"Justice",60,"Fairness",true,"Drug consumption",87,"Substance use",true,1199,,,,,,,,,
66952022eeb1290c2d6564f7,forced_choice,155,198,"Respectful",61,"Politeness",true,"Drug consumption",87,"Substance use",true,"Respectful",61,"Politeness",true,"Drug consumption",87,"Substance use",true,1478,,,,,,,,,
66952022eeb1290c2d6564f7,forced_choice,156,198,"Helpfulness",63,"Helpfulness",false,"Introspection",78,"Self-reflection",true,"Helpfulness",63,"Helpfulness",false,"Introspection",78,"Self-reflection",true,3197,,,,,,,,,
66952022eeb1290c2d6564f7,forced_choice,157,198,"Drug consumption",87,"Substance use",true,"Ability to wait",62,"Patience",true,"Ability to wait",62,"Patience",true,"Drug consumption",87,"Substance use",true,1620,,,,,,,,,
66952022eeb1290c2d6564f7,forced_choice,158,198,"Helpfulness",63,"Helpfulness",false,"Standing up for oneself",81,"Self-advocacy",true,"Helpfulness",63,"Helpfulness",false,"Standing up for oneself",81,"Self-advocacy",true,2232,,,,,,,,,
66952022eeb1290c2d6564f7,forced_choice,159,198,"Justice",60,"Fairness",true,"Exertion",74,"Effort",true,"Justice",60,"Fairness",true,"Exertion",74,"Effort",true,1711,,,,,,,,,
66952022eeb1290c2d6564f7,forced_choice,160,198,"Accountability",66,"Responsibility",true,"Initiative",69,"Initiative",false,"Accountability",66,"Responsibility",true,"Initiative",69,"Initiative",false,2849,,,,,,,,,
66952022eeb1290c2d6564f7,forced_choice,161,198,"Standing up for oneself",81,"Self-advocacy",true,"Accountability",66,"Responsibility",true,"Accountability",66,"Responsibility",true,"Standing up for oneself",81,"Self-advocacy",true,1786,,,,,,,,,
66952022eeb1290c2d6564f7,forced_choice,162,198,"Gender expression",18,"Sexual behavior",true,"Introspection",78,"Self-reflection",true,"Introspection",78,"Self-reflection",true,"Gender expression",18,"Sexual behavior",true,1826,,,,,,,,,
66952022eeb1290c2d6564f7,forced_choice,163,198,"Ability to wait",62,"Patience",true,"Respectful",61,"Politeness",true,"Respectful",61,"Politeness",true,"Ability to wait",62,"Patience",true,10982,,,,,,,,,
66952022eeb1290c2d6564f7,forced_choice,164,198,"Helpfulness",63,"Helpfulness",false,"Drug consumption",87,"Substance use",true,"Helpfulness",63,"Helpfulness",false,"Drug consumption",87,"Substance use",true,1720,,,,,,,,,
66952022eeb1290c2d6564f7,attention_check,167,,,,,,,,,,,,,,,,,,3845,"Social skills","Social skills",true,,,,,,
66952022eeb1290c2d6564f7,forced_choice,165,198,"Accountability",66,"Responsibility",true,"Prospective view",72,"Future outlook",true,"Accountability",66,"Responsibility",true,"Prospective view",72,"Future outlook",true,1762,,,,,,,,,
66952022eeb1290c2d6564f7,forced_choice,166,198,"Drug consumption",87,"Substance use",true,"Relationships with teachers",11,"Relationships with teachers",false,"Relationships with teachers",11,"Relationships with teachers",false,"Drug consumption",87,"Substance use",true,2002,,,,,,,,,
66952022eeb1290c2d6564f7,forced_choice,167,198,"Standing up for oneself",81,"Self-advocacy",true,"Self-acceptance",79,"Self-acceptance",false,"Self-acceptance",79,"Self-acceptance",false,"Standing up for oneself",81,"Self-advocacy",true,9379,,,,,,,,,
66952022eeb1290c2d6564f7,forced_choice,168,198,"Restraint",75,"Self-control",true,"Prospective view",72,"Future outlook",true,"Prospective view",72,"Future outlook",true,"Restraint",75,"Self-control",true,3114,,,,,,,,,
66952022eeb1290c2d6564f7,forced_choice,169,198,"Innovative thoughts",50,"Creativity and imagination",true,"Standing up for oneself",81,"Self-advocacy",true,"Innovative thoughts",50,"Creativity and imagination",true,"Standing up for oneself",81,"Self-advocacy",true,1832,,,,,,,,,
66952022eeb1290c2d6564f7,forced_choice,170,198,"Observation",7,"Perception",true,"Standing up for oneself",81,"Self-advocacy",true,"Observation",7,"Perception",true,"Standing up for oneself",81,"Self-advocacy",true,1928,,,,,,,,,
66952022eeb1290c2d6564f7,forced_choice,171,198,"Restraint",75,"Self-control",true,"Collaboration with others",12,"Social cooperation",true,"Collaboration with others",12,"Social cooperation",true,"Restraint",75,"Self-control",true,1118,,,,,,,,,
66952022eeb1290c2d6564f7,forced_choice,172,198,"Self-reliance",68,"Independence",true,"Exertion",74,"Effort",true,"Self-reliance",68,"Independence",true,"Exertion",74,"Effort",true,2899,,,,,,,,,
66952022eeb1290c2d6564f7,forced_choice,173,198,"Helpfulness",63,"Helpfulness",false,"Planning",42,"Planning",false,"Planning",42,"Planning",false,"Helpfulness",63,"Helpfulness",false,2115,,,,,,,,,
66952022eeb1290c2d6564f7,forced_choice,174,198,"Initiative",69,"Initiative",false,"Self-acceptance",79,"Self-acceptance",false,"Self-acceptance",79,"Self-acceptance",false,"Initiative",69,"Initiative",false,1745,,,,,,,,,
66952022eeb1290c2d6564f7,forced_choice,175,198,"Controlling feelings",29,"Managing emotions",true,"Self-awareness",76,"Self-awareness",false,"Controlling feelings",29,"Managing emotions",true,"Self-awareness",76,"Self-awareness",false,2316,,,,,,,,,
66952022eeb1290c2d6564f7,forced_choice,176,198,"Self-acceptance",79,"Self-acceptance",false,"Emotional well-being",84,"Emotional well-being",false,"Self-acceptance",79,"Self-acceptance",false,"Emotional well-being",84,"Emotional well-being",false,4781,,,,,,,,,
66952022eeb1290c2d6564f7,forced_choice,177,198,"Exertion",74,"Effort",true,"Relationships with teachers",11,"Relationships with teachers",false,"Relationships with teachers",11,"Relationships with teachers",false,"Exertion",74,"Effort",true,1219,,,,,,,,,
66952022eeb1290c2d6564f7,forced_choice,178,198,"Observation",7,"Perception",true,"Planning",42,"Planning",false,"Planning",42,"Planning",false,"Observation",7,"Perception",true,2044,,,,,,,,,
66952022eeb1290c2d6564f7,forced_choice,179,198,"Collaboration with others",12,"Social cooperation",true,"Helpfulness",63,"Helpfulness",false,"Collaboration with others",12,"Social cooperation",true,"Helpfulness",63,"Helpfulness",false,1635,,,,,,,,,
66952022eeb1290c2d6564f7,forced_choice,180,198,"Reasoning ability",35,"Reasoning ability",false,"Drug consumption",87,"Substance use",true,"Reasoning ability",35,"Reasoning ability",false,"Drug consumption",87,"Substance use",true,1878,,,,,,,,,
66952022eeb1290c2d6564f7,forced_choice,181,198,"Drug consumption",87,"Substance use",true,"Initiative",69,"Initiative",false,"Initiative",69,"Initiative",false,"Drug consumption",87,"Substance use",true,1219,,,,,,,,,
66952022eeb1290c2d6564f7,forced_choice,182,198,"Reasoning ability",35,"Reasoning ability",false,"Observation",7,"Perception",true,"Reasoning ability",35,"Reasoning ability",false,"Observation",7,"Perception",true,2478,,,,,,,,,
66952022eeb1290c2d6564f7,forced_choice,183,198,"Controlling feelings",29,"Managing emotions",true,"Helpfulness",63,"Helpfulness",false,"Helpfulness",63,"Helpfulness",false,"Controlling feelings",29,"Managing emotions",true,2653,,,,,,,,,
66952022eeb1290c2d6564f7,forced_choice,184,198,"Gender expression",18,"Sexual behavior",true,"Justice",60,"Fairness",true,"Gender expression",18,"Sexual behavior",true,"Justice",60,"Fairness",true,1265,,,,,,,,,
66952022eeb1290c2d6564f7,forced_choice,185,198,"Mood",32,"Mood",false,"Respectful",61,"Politeness",true,"Respectful",61,"Politeness",true,"Mood",32,"Mood",false,1199,,,,,,,,,
66952022eeb1290c2d6564f7,forced_choice,186,198,"Restraint",75,"Self-control",true,"Drug consumption",87,"Substance use",true,"Restraint",75,"Self-control",true,"Drug consumption",87,"Substance use",true,1166,,,,,,,,,
66952022eeb1290c2d6564f7,forced_choice,187,198,"Exertion",74,"Effort",true,"Introspection",78,"Self-reflection",true,"Introspection",78,"Self-reflection",true,"Exertion",74,"Effort",true,1699,,,,,,,,,
66952022eeb1290c2d6564f7,forced_choice,188,198,"Helpfulness",63,"Helpfulness",false,"Emotional well-being",84,"Emotional well-being",false,"Helpfulness",63,"Helpfulness",false,"Emotional well-being",84,"Emotional well-being",false,1465,,,,,,,,,
66952022eeb1290c2d6564f7,forced_choice,189,198,"Gender expression",18,"Sexual behavior",true,"Drug consumption",87,"Substance use",true,"Gender expression",18,"Sexual behavior",true,"Drug consumption",87,"Substance use",true,1395,,,,,,,,,
66952022eeb1290c2d6564f7,forced_choice,190,198,"Emotional well-being",84,"Emotional well-being",false,"Collaboration with others",12,"Social cooperation",true,"Emotional well-being",84,"Emotional well-being",false,"Collaboration with others",12,"Social cooperation",true,2679,,,,,,,,,
66952022eeb1290c2d6564f7,forced_choice,191,198,"Justice",60,"Fairness",true,"Self-awareness",76,"Self-awareness",false,"Self-awareness",76,"Self-awareness",false,"Justice",60,"Fairness",true,1301,,,,,,,,,
66952022eeb1290c2d6564f7,forced_choice,192,198,"Self-awareness",76,"Self-awareness",false,"Ability to wait",62,"Patience",true,"Self-awareness",76,"Self-awareness",false,"Ability to wait",62,"Patience",true,1782,,,,,,,,,
66952022eeb1290c2d6564f7,forced_choice,193,198,"Self-awareness",76,"Self-awareness",false,"Initiative",69,"Initiative",false,"Initiative",69,"Initiative",false,"Self-awareness",76,"Self-awareness",false,1231,,,,,,,,,
66952022eeb1290c2d6564f7,forced_choice,194,198,"Observation",7,"Perception",true,"Mood",32,"Mood",false,"Observation",7,"Perception",true,"Mood",32,"Mood",false,1348,,,,,,,,,
66952022eeb1290c2d6564f7,forced_choice,195,198,"Helpfulness",63,"Helpfulness",false,"Mood",32,"Mood",false,"Helpfulness",63,"Helpfulness",false,"Mood",32,"Mood",false,1162,,,,,,,,,
66952022eeb1290c2d6564f7,forced_choice,196,198,"Introspection",78,"Self-reflection",true,"Standing up for oneself",81,"Self-advocacy",true,"Introspection",78,"Self-reflection",true,"Standing up for oneself",81,"Self-advocacy",true,1465,,,,,,,,,
66952022eeb1290c2d6564f7,forced_choice,197,198,"Self-acceptance",79,"Self-acceptance",false,"Gender expression",18,"Sexual behavior",true,"Gender expression",18,"Sexual behavior",true,"Self-acceptance",79,"Self-acceptance",false,2768,,,,,,,,,
66952022eeb1290c2d6564f7,forced_choice,198,198,"Self-awareness",76,"Self-awareness",false,"Relationships with teachers",11,"Relationships with teachers",false,"Self-awareness",76,"Self-awareness",false,"Relationships with teachers",11,"Relationships with teachers",false,1448,,,,,,,,,
66952022eeb1290c2d6564f7,forced_choice,199,198,"Exertion",74,"Effort",true,"Planning",42,"Planning",false,"Planning",42,"Planning",false,"Exertion",74,"Effort",true,1599,,,,,,,,,
66952022eeb1290c2d6564f7,forced_choice,200,198,"Justice",60,"Fairness",true,"Standing up for oneself",81,"Self-advocacy",true,"Justice",60,"Fairness",true,"Standing up for oneself",81,"Self-advocacy",true,2282,,,,,,,,,
66952022eeb1290c2d6564f7,forced_choice,201,198,"Initiative",69,"Initiative",false,"Reasoning ability",35,"Reasoning ability",false,"Initiative",69,"Initiative",false,"Reasoning ability",35,"Reasoning ability",false,1294,,,,,,,,,
66952022eeb1290c2d6564f7,forced_choice,202,198,"Observation",7,"Perception",true,"Respectful",61,"Politeness",true,"Observation",7,"Perception",true,"Respectful",61,"Politeness",true,2081,,,,,,,,,
66952022eeb1290c2d6564f7,forced_choice,203,198,"Self-reliance",68,"Independence",true,"Standing up for oneself",81,"Self-advocacy",true,"Self-reliance",68,"Independence",true,"Standing up for oneself",81,"Self-advocacy",true,1915,,,,,,,,,
66952022eeb1290c2d6564f7,forced_choice,204,198,"Self-awareness",76,"Self-awareness",false,"Respectful",61,"Politeness",true,"Self-awareness",76,"Self-awareness",false,"Respectful",61,"Politeness",true,3399,,,,,,,,,
66952022eeb1290c2d6564f7,forced_choice,205,198,"Self-acceptance",79,"Self-acceptance",false,"Prospective view",72,"Future outlook",true,"Prospective view",72,"Future outlook",true,"Self-acceptance",79,"Self-acceptance",false,2369,,,,,,,,,
66952022eeb1290c2d6564f7,forced_choice,206,198,"Helpfulness",63,"Helpfulness",false,"Prospective view",72,"Future outlook",true,"Helpfulness",63,"Helpfulness",false,"Prospective view",72,"Future outlook",true,1914,,,,,,,,,
66952022eeb1290c2d6564f7,forced_choice,207,198,"Planning",42,"Planning",false,"Introspection",78,"Self-reflection",true,"Introspection",78,"Self-reflection",true,"Planning",42,"Planning",false,2000,,,,,,,,,
66952022eeb1290c2d6564f7,forced_choice,208,198,"Accountability",66,"Responsibility",true,"Gender expression",18,"Sexual behavior",true,"Accountability",66,"Responsibility",true,"Gender expression",18,"Sexual behavior",true,1348,,,,,,,,,
66952022eeb1290c2d6564f7,forced_choice,209,198,"Prospective view",72,"Future outlook",true,"Collaboration with others",12,"Social cooperation",true,"Collaboration with others",12,"Social cooperation",true,"Prospective view",72,"Future outlook",true,3383,,,,,,,,,
66952022eeb1290c2d6564f7,forced_choice,210,198,"Receptive communication",2,"Receptive communication",false,"Helpfulness",63,"Helpfulness",false,"Receptive communication",2,"Receptive communication",false,"Helpfulness",63,"Helpfulness",false,1132,,,,,,,,,
66952022eeb1290c2d6564f7,forced_choice,211,198,"Planning",42,"Planning",false,"Reasoning ability",35,"Reasoning ability",false,"Reasoning ability",35,"Reasoning ability",false,"Planning",42,"Planning",false,2531,,,,,,,,,
66952022eeb1290c2d6564f7,forced_choice,212,198,"Innovative thoughts",50,"Creativity and imagination",true,"Exertion",74,"Effort",true,"Innovative thoughts",50,"Creativity and imagination",true,"Exertion",74,"Effort",true,1049,,,,,,,,,
66952022eeb1290c2d6564f7,forced_choice,213,198,"Justice",60,"Fairness",true,"Relationships with teachers",11,"Relationships with teachers",false,"Relationships with teachers",11,"Relationships with teachers",false,"Justice",60,"Fairness",true,2981,,,,,,,,,
66952022eeb1290c2d6564f7,forced_choice,214,198,"Self-acceptance",79,"Self-acceptance",false,"Self-reliance",68,"Independence",true,"Self-acceptance",79,"Self-acceptance",false,"Self-reliance",68,"Independence",true,2033,,,,,,,,,
66952022eeb1290c2d6564f7,forced_choice,215,198,"Introspection",78,"Self-reflection",true,"Relationships with teachers",11,"Relationships with teachers",false,"Relationships with teachers",11,"Relationships with teachers",false,"Introspection",78,"Self-reflection",true,1699,,,,,,,,,
66952022eeb1290c2d6564f7,forced_choice,216,198,"Helpfulness",63,"Helpfulness",false,"Exertion",74,"Effort",true,"Helpfulness",63,"Helpfulness",false,"Exertion",74,"Effort",true,1615,,,,,,,,,
66952022eeb1290c2d6564f7,forced_choice,217,198,"Relationships with teachers",11,"Relationships with teachers",false,"Respectful",61,"Politeness",true,"Relationships with teachers",11,"Relationships with teachers",false,"Respectful",61,"Politeness",true,3428,,,,,,,,,
66952022eeb1290c2d6564f7,forced_choice,218,198,"Standing up for oneself",81,"Self-advocacy",true,"Receptive communication",2,"Receptive communication",false,"Receptive communication",2,"Receptive communication",false,"Standing up for oneself",81,"Self-advocacy",true,1602,,,,,,,,,
66952022eeb1290c2d6564f7,forced_choice,219,198,"Self-reliance",68,"Independence",true,"Helpfulness",63,"Helpfulness",false,"Helpfulness",63,"Helpfulness",false,"Self-reliance",68,"Independence",true,1927,,,,,,,,,
66952022eeb1290c2d6564f7,attention_check,223,,,,,,,,,,,,,,,,,,2817,"Managing emotions","Managing emotions",true,,,,,,
66952022eeb1290c2d6564f7,forced_choice,220,198,"Receptive communication",2,"Receptive communication",false,"Controlling feelings",29,"Managing emotions",true,"Receptive communication",2,"Receptive communication",false,"Controlling feelings",29,"Managing emotions",true,1628,,,,,,,,,
66952022eeb1290c2d6564f7,forced_choice,221,198,"Collaboration with others",12,"Social cooperation",true,"Reasoning ability",35,"Reasoning ability",false,"Collaboration with others",12,"Social cooperation",true,"Reasoning ability",35,"Reasoning ability",false,2033,,,,,,,,,
66952022eeb1290c2d6564f7,forced_choice,222,198,"Relationships with teachers",11,"Relationships with teachers",false,"Prospective view",72,"Future outlook",true,"Relationships with teachers",11,"Relationships with teachers",false,"Prospective view",72,"Future outlook",true,915,,,,,,,,,
66952022eeb1290c2d6564f7,forced_choice,223,198,"Innovative thoughts",50,"Creativity and imagination",true,"Prospective view",72,"Future outlook",true,"Prospective view",72,"Future outlook",true,"Innovative thoughts",50,"Creativity and imagination",true,1752,,,,,,,,,
66952022eeb1290c2d6564f7,forced_choice,224,198,"Respectful",61,"Politeness",true,"Introspection",78,"Self-reflection",true,"Introspection",78,"Self-reflection",true,"Respectful",61,"Politeness",true,1228,,,,,,,,,
66952022eeb1290c2d6564f7,forced_choice,225,198,"Self-reliance",68,"Independence",true,"Innovative thoughts",50,"Creativity and imagination",true,"Innovative thoughts",50,"Creativity and imagination",true,"Self-reliance",68,"Independence",true,3582,,,,,,,,,
66952022eeb1290c2d6564f7,forced_choice,226,198,"Gender expression",18,"Sexual behavior",true,"Planning",42,"Planning",false,"Planning",42,"Planning",false,"Gender expression",18,"Sexual behavior",true,2031,,,,,,,,,
66952022eeb1290c2d6564f7,forced_choice,227,198,"Introspection",78,"Self-reflection",true,"Self-reliance",68,"Independence",true,"Introspection",78,"Self-reflection",true,"Self-reliance",68,"Independence",true,1087,,,,,,,,,
66952022eeb1290c2d6564f7,forced_choice,228,198,"Receptive communication",2,"Receptive communication",false,"Restraint",75,"Self-control",true,"Receptive communication",2,"Receptive communication",false,"Restraint",75,"Self-control",true,2244,,,,,,,,,
66952022eeb1290c2d6564f7,forced_choice,229,198,"Innovative thoughts",50,"Creativity and imagination",true,"Mood",32,"Mood",false,"Innovative thoughts",50,"Creativity and imagination",true,"Mood",32,"Mood",false,1265,,,,,,,,,
66952022eeb1290c2d6564f7,forced_choice,230,198,"Introspection",78,"Self-reflection",true,"Self-acceptance",79,"Self-acceptance",false,"Introspection",78,"Self-reflection",true,"Self-acceptance",79,"Self-acceptance",false,3365,,,,,,,,,
66952022eeb1290c2d6564f7,forced_choice,231,198,"Accountability",66,"Responsibility",true,"Self-awareness",76,"Self-awareness",false,"Accountability",66,"Responsibility",true,"Self-awareness",76,"Self-awareness",false,931,,,,,,,,,
66952022eeb1290c2d6564f7,forced_choice,232,198,"Self-awareness",76,"Self-awareness",false,"Gender expression",18,"Sexual behavior",true,"Self-awareness",76,"Self-awareness",false,"Gender expression",18,"Sexual behavior",true,2046,,,,,,,,,
66952022eeb1290c2d6564f7,forced_choice,233,198,"Gender expression",18,"Sexual behavior",true,"Collaboration with others",12,"Social cooperation",true,"Collaboration with others",12,"Social cooperation",true,"Gender expression",18,"Sexual behavior",true,1270,,,,,,,,,
66952022eeb1290c2d6564f7,forced_choice,234,198,"Emotional well-being",84,"Emotional well-being",false,"Receptive communication",2,"Receptive communication",false,"Receptive communication",2,"Receptive communication",false,"Emotional well-being",84,"Emotional well-being",false,1711,,,,,,,,,
66952022eeb1290c2d6564f7,forced_choice,235,198,"Justice",60,"Fairness",true,"Helpfulness",63,"Helpfulness",false,"Helpfulness",63,"Helpfulness",false,"Justice",60,"Fairness",true,1682,,,,,,,,,
66952022eeb1290c2d6564f7,forced_choice,236,198,"Exertion",74,"Effort",true,"Respectful",61,"Politeness",true,"Respectful",61,"Politeness",true,"Exertion",74,"Effort",true,1165,,,,,,,,,
66952022eeb1290c2d6564f7,forced_choice,237,198,"Ability to wait",62,"Patience",true,"Justice",60,"Fairness",true,"Ability to wait",62,"Patience",true,"Justice",60,"Fairness",true,1252,,,,,,,,,
66952022eeb1290c2d6564f7,forced_choice,238,198,"Self-acceptance",79,"Self-acceptance",false,"Justice",60,"Fairness",true,"Self-acceptance",79,"Self-acceptance",false,"Justice",60,"Fairness",true,1295,,,,,,,,,
66952022eeb1290c2d6564f7,forced_choice,239,198,"Reasoning ability",35,"Reasoning ability",false,"Receptive communication",2,"Receptive communication",false,"Receptive communication",2,"Receptive communication",false,"Reasoning ability",35,"Reasoning ability",false,3018,,,,,,,,,
66952022eeb1290c2d6564f7,forced_choice,240,198,"Initiative",69,"Initiative",false,"Observation",7,"Perception",true,"Observation",7,"Perception",true,"Initiative",69,"Initiative",false,1857,,,,,,,,,
66952022eeb1290c2d6564f7,forced_choice,241,198,"Innovative thoughts",50,"Creativity and imagination",true,"Observation",7,"Perception",true,"Observation",7,"Perception",true,"Innovative thoughts",50,"Creativity and imagination",true,5233,,,,,,,,,
66952022eeb1290c2d6564f7,forced_choice,242,198,"Relationships with teachers",11,"Relationships with teachers",false,"Helpfulness",63,"Helpfulness",false,"Relationships with teachers",11,"Relationships with teachers",false,"Helpfulness",63,"Helpfulness",false,1536,,,,,,,,,
66952022eeb1290c2d6564f7,forced_choice,243,198,"Ability to wait",62,"Patience",true,"Accountability",66,"Responsibility",true,"Accountability",66,"Responsibility",true,"Ability to wait",62,"Patience",true,1167,,,,,,,,,
66952022eeb1290c2d6564f7,forced_choice,244,198,"Reasoning ability",35,"Reasoning ability",false,"Ability to wait",62,"Patience",true,"Reasoning ability",35,"Reasoning ability",false,"Ability to wait",62,"Patience",true,3363,,,,,,,,,
66952022eeb1290c2d6564f7,forced_choice,245,198,"Accountability",66,"Responsibility",true,"Collaboration with others",12,"Social cooperation",true,"Collaboration with others",12,"Social cooperation",true,"Accountability",66,"Responsibility",true,1531,,,,,,,,,
66952022eeb1290c2d6564f7,forced_choice,246,198,"Restraint",75,"Self-control",true,"Gender expression",18,"Sexual behavior",true,"Gender expression",18,"Sexual behavior",true,"Restraint",75,"Self-control",true,1461,,,,,,,,,
66952022eeb1290c2d6564f7,forced_choice,247,198,"Collaboration with others",12,"Social cooperation",true,"Mood",32,"Mood",false,"Collaboration with others",12,"Social cooperation",true,"Mood",32,"Mood",false,1202,,,,,,,,,
66952022eeb1290c2d6564f7,forced_choice,248,198,"Relationships with teachers",11,"Relationships with teachers",false,"Self-reliance",68,"Independence",true,"Relationships with teachers",11,"Relationships with teachers",false,"Self-reliance",68,"Independence",true,1212,,,,,,,,,
66952022eeb1290c2d6564f7,forced_choice,249,198,"Relationships with teachers",11,"Relationships with teachers",false,"Standing up for oneself",81,"Self-advocacy",true,"Relationships with teachers",11,"Relationships with teachers",false,"Standing up for oneself",81,"Self-advocacy",true,1214,,,,,,,,,
66952022eeb1290c2d6564f7,forced_choice,250,198,"Ability to wait",62,"Patience",true,"Observation",7,"Perception",true,"Observation",7,"Perception",true,"Ability to wait",62,"Patience",true,1769,,,,,,,,,
66952022eeb1290c2d6564f7,forced_choice,251,198,"Emotional well-being",84,"Emotional well-being",false,"Mood",32,"Mood",false,"Emotional well-being",84,"Emotional well-being",false,"Mood",32,"Mood",false,1315,,,,,,,,,
66952022eeb1290c2d6564f7,forced_choice,252,198,"Controlling feelings",29,"Managing emotions",true,"Relationships with teachers",11,"Relationships with teachers",false,"Controlling feelings",29,"Managing emotions",true,"Relationships with teachers",11,"Relationships with teachers",false,1895,,,,,,,,,
66952022eeb1290c2d6564f7,forced_choice,253,198,"Ability to wait",62,"Patience",true,"Collaboration with others",12,"Social cooperation",true,"Collaboration with others",12,"Social cooperation",true,"Ability to wait",62,"Patience",true,1382,,,,,,,,,
66952022eeb1290c2d6564f7,forced_choice,254,198,"Restraint",75,"Self-control",true,"Helpfulness",63,"Helpfulness",false,"Restraint",75,"Self-control",true,"Helpfulness",63,"Helpfulness",false,4420,,,,,,,,,
66952022eeb1290c2d6564f7,forced_choice,255,198,"Self-awareness",76,"Self-awareness",false,"Innovative thoughts",50,"Creativity and imagination",true,"Self-awareness",76,"Self-awareness",false,"Innovative thoughts",50,"Creativity and imagination",true,2128,,,,,,,,,
66952022eeb1290c2d6564f7,forced_choice,256,198,"Ability to wait",62,"Patience",true,"Relationships with teachers",11,"Relationships with teachers",false,"Relationships with teachers",11,"Relationships with teachers",false,"Ability to wait",62,"Patience",true,1419,,,,,,,,,
66952022eeb1290c2d6564f7,forced_choice,257,198,"Justice",60,"Fairness",true,"Introspection",78,"Self-reflection",true,"Justice",60,"Fairness",true,"Introspection",78,"Self-reflection",true,1782,,,,,,,,,
66952022eeb1290c2d6564f7,forced_choice,258,198,"Accountability",66,"Responsibility",true,"Observation",7,"Perception",true,"Accountability",66,"Responsibility",true,"Observation",7,"Perception",true,2345,,,,,,,,,
66952022eeb1290c2d6564f7,forced_choice,259,198,"Respectful",61,"Politeness",true,"Innovative thoughts",50,"Creativity and imagination",true,"Respectful",61,"Politeness",true,"Innovative thoughts",50,"Creativity and imagination",true,1498,,,,,,,,,
66952022eeb1290c2d6564f7,forced_choice,260,198,"Observation",7,"Perception",true,"Justice",60,"Fairness",true,"Observation",7,"Perception",true,"Justice",60,"Fairness",true,1366,,,,,,,,,
66952022eeb1290c2d6564f7,forced_choice,261,198,"Receptive communication",2,"Receptive communication",false,"Justice",60,"Fairness",true,"Receptive communication",2,"Receptive communication",false,"Justice",60,"Fairness",true,1215,,,,,,,,,
66952022eeb1290c2d6564f7,forced_choice,262,198,"Exertion",74,"Effort",true,"Ability to wait",62,"Patience",true,"Ability to wait",62,"Patience",true,"Exertion",74,"Effort",true,3970,,,,,,,,,
66952022eeb1290c2d6564f7,forced_choice,263,198,"Restraint",75,"Self-control",true,"Reasoning ability",35,"Reasoning ability",false,"Reasoning ability",35,"Reasoning ability",false,"Restraint",75,"Self-control",true,1462,,,,,,,,,
66952022eeb1290c2d6564f7,forced_choice,264,198,"Innovative thoughts",50,"Creativity and imagination",true,"Helpfulness",63,"Helpfulness",false,"Innovative thoughts",50,"Creativity and imagination",true,"Helpfulness",63,"Helpfulness",false,1053,,,,,,,,,
66952022eeb1290c2d6564f7,forced_choice,265,198,"Standing up for oneself",81,"Self-advocacy",true,"Exertion",74,"Effort",true,"Standing up for oneself",81,"Self-advocacy",true,"Exertion",74,"Effort",true,1478,,,,,,,,,
66952022eeb1290c2d6564f7,forced_choice,266,198,"Collaboration with others",12,"Social cooperation",true,"Self-acceptance",79,"Self-acceptance",false,"Collaboration with others",12,"Social cooperation",true,"Self-acceptance",79,"Self-acceptance",false,1682,,,,,,,,,
66952022eeb1290c2d6564f7,forced_choice,267,198,"Observation",7,"Perception",true,"Introspection",78,"Self-reflection",true,"Observation",7,"Perception",true,"Introspection",78,"Self-reflection",true,1682,,,,,,,,,
66952022eeb1290c2d6564f7,forced_choice,268,198,"Justice",60,"Fairness",true,"Prospective view",72,"Future outlook",true,"Prospective view",72,"Future outlook",true,"Justice",60,"Fairness",true,1152,,,,,,,,,
66952022eeb1290c2d6564f7,forced_choice,269,198,"Collaboration with others",12,"Social cooperation",true,"Initiative",69,"Initiative",false,"Collaboration with others",12,"Social cooperation",true,"Initiative",69,"Initiative",false,1212,,,,,,,,,
66952022eeb1290c2d6564f7,forced_choice,270,198,"Reasoning ability",35,"Reasoning ability",false,"Accountability",66,"Responsibility",true,"Accountability",66,"Responsibility",true,"Reasoning ability",35,"Reasoning ability",false,1769,,,,,,,,,
66952022eeb1290c2d6564f7,forced_choice,271,198,"Mood",32,"Mood",false,"Drug consumption",87,"Substance use",true,"Mood",32,"Mood",false,"Drug consumption",87,"Substance use",true,1132,,,,,,,,,
66952022eeb1290c2d6564f7,forced_choice,272,198,"Relationships with teachers",11,"Relationships with teachers",false,"Receptive communication",2,"Receptive communication",false,"Relationships with teachers",11,"Relationships with teachers",false,"Receptive communication",2,"Receptive communication",false,1762,,,,,,,,,
66952022eeb1290c2d6564f7,forced_choice,273,198,"Respectful",61,"Politeness",true,"Justice",60,"Fairness",true,"Respectful",61,"Politeness",true,"Justice",60,"Fairness",true,1715,,,,,,,,,
66952022eeb1290c2d6564f7,forced_choice,274,198,"Collaboration with others",12,"Social cooperation",true,"Justice",60,"Fairness",true,"Collaboration with others",12,"Social cooperation",true,"Justice",60,"Fairness",true,1798,,,,,,,,,
66952022eeb1290c2d6564f7,attention_check,279,,,,,,,,,,,,,,,,,,4037,"Playing with others","Playing with others",true,,,,,,
66952022eeb1290c2d6564f7,forced_choice,275,198,"Drug consumption",87,"Substance use",true,"Standing up for oneself",81,"Self-advocacy",true,"Standing up for oneself",81,"Self-advocacy",true,"Drug consumption",87,"Substance use",true,1678,,,,,,,,,
66952022eeb1290c2d6564f7,forced_choice,276,198,"Planning",42,"Planning",false,"Collaboration with others",12,"Social cooperation",true,"Planning",42,"Planning",false,"Collaboration with others",12,"Social cooperation",true,3366,,,,,,,,,
66952022eeb1290c2d6564f7,forced_choice,277,198,"Relationships with teachers",11,"Relationships with teachers",false,"Gender expression",18,"Sexual behavior",true,"Relationships with teachers",11,"Relationships with teachers",false,"Gender expression",18,"Sexual behavior",true,1511,,,,,,,,,
66952022eeb1290c2d6564f7,forced_choice,278,198,"Self-awareness",76,"Self-awareness",false,"Exertion",74,"Effort",true,"Self-awareness",76,"Self-awareness",false,"Exertion",74,"Effort",true,2282,,,,,,,,,
66952022eeb1290c2d6564f7,forced_choice,279,198,"Self-reliance",68,"Independence",true,"Emotional well-being",84,"Emotional well-being",false,"Emotional well-being",84,"Emotional well-being",false,"Self-reliance",68,"Independence",true,4652,,,,,,,,,
66952022eeb1290c2d6564f7,forced_choice,280,198,"Planning",42,"Planning",false,"Self-reliance",68,"Independence",true,"Self-reliance",68,"Independence",true,"Planning",42,"Planning",false,2161,,,,,,,,,
66952022eeb1290c2d6564f7,forced_choice,281,198,"Reasoning ability",35,"Reasoning ability",false,"Standing up for oneself",81,"Self-advocacy",true,"Standing up for oneself",81,"Self-advocacy",true,"Reasoning ability",35,"Reasoning ability",false,4881,,,,,,,,,
66952022eeb1290c2d6564f7,forced_choice,282,198,"Relationships with teachers",11,"Relationships with teachers",false,"Accountability",66,"Responsibility",true,"Relationships with teachers",11,"Relationships with teachers",false,"Accountability",66,"Responsibility",true,1702,,,,,,,,,
66952022eeb1290c2d6564f7,forced_choice,283,198,"Initiative",69,"Initiative",false,"Relationships with teachers",11,"Relationships with teachers",false,"Relationships with teachers",11,"Relationships with teachers",false,"Initiative",69,"Initiative",false,1432,,,,,,,,,
66952022eeb1290c2d6564f7,forced_choice,284,198,"Prospective view",72,"Future outlook",true,"Introspection",78,"Self-reflection",true,"Prospective view",72,"Future outlook",true,"Introspection",78,"Self-reflection",true,2244,,,,,,,,,
66952022eeb1290c2d6564f7,forced_choice,285,198,"Controlling feelings",29,"Managing emotions",true,"Standing up for oneself",81,"Self-advocacy",true,"Standing up for oneself",81,"Self-advocacy",true,"Controlling feelings",29,"Managing emotions",true,1205,,,,,,,,,
66952022eeb1290c2d6564f7,forced_choice,286,198,"Reasoning ability",35,"Reasoning ability",false,"Innovative thoughts",50,"Creativity and imagination",true,"Innovative thoughts",50,"Creativity and imagination",true,"Reasoning ability",35,"Reasoning ability",false,1561,,,,,,,,,
66952022eeb1290c2d6564f7,forced_choice,287,198,"Ability to wait",62,"Patience",true,"Planning",42,"Planning",false,"Planning",42,"Planning",false,"Ability to wait",62,"Patience",true,1215,,,,,,,,,
66952022eeb1290c2d6564f7,forced_choice,288,198,"Accountability",66,"Responsibility",true,"Helpfulness",63,"Helpfulness",false,"Helpfulness",63,"Helpfulness",false,"Accountability",66,"Responsibility",true,1382,,,,,,,,,
66952022eeb1290c2d6564f7,forced_choice,289,198,"Initiative",69,"Initiative",false,"Prospective view",72,"Future outlook",true,"Prospective view",72,"Future outlook",true,"Initiative",69,"Initiative",false,1982,,,,,,,,,
66952022eeb1290c2d6564f7,forced_choice,290,198,"Standing up for oneself",81,"Self-advocacy",true,"Gender expression",18,"Sexual behavior",true,"Standing up for oneself",81,"Self-advocacy",true,"Gender expression",18,"Sexual behavior",true,1569,,,,,,,,,
66952022eeb1290c2d6564f7,forced_choice,291,198,"Self-reliance",68,"Independence",true,"Drug consumption",87,"Substance use",true,"Self-reliance",68,"Independence",true,"Drug consumption",87,"Substance use",true,1295,,,,,,,,,
66952022eeb1290c2d6564f7,forced_choice,292,198,"Ability to wait",62,"Patience",true,"Standing up for oneself",81,"Self-advocacy",true,"Ability to wait",62,"Patience",true,"Standing up for oneself",81,"Self-advocacy",true,1864,,,,,,,,,
66952022eeb1290c2d6564f7,forced_choice,293,198,"Restraint",75,"Self-control",true,"Ability to wait",62,"Patience",true,"Restraint",75,"Self-control",true,"Ability to wait",62,"Patience",true,3049,,,,,,,,,
66952022eeb1290c2d6564f7,forced_choice,294,198,"Emotional well-being",84,"Emotional well-being",false,"Exertion",74,"Effort",true,"Emotional well-being",84,"Emotional well-being",false,"Exertion",74,"Effort",true,1450,,,,,,,,,
66952022eeb1290c2d6564f7,forced_choice,295,198,"Self-reliance",68,"Independence",true,"Mood",32,"Mood",false,"Self-reliance",68,"Independence",true,"Mood",32,"Mood",false,1411,,,,,,,,,
66952022eeb1290c2d6564f7,forced_choice,296,198,"Emotional well-being",84,"Emotional well-being",false,"Ability to wait",62,"Patience",true,"Emotional well-being",84,"Emotional well-being",false,"Ability to wait",62,"Patience",true,2668,,,,,,,,,
66952022eeb1290c2d6564f7,forced_choice,297,198,"Introspection",78,"Self-reflection",true,"Emotional well-being",84,"Emotional well-being",false,"Introspection",78,"Self-reflection",true,"Emotional well-being",84,"Emotional well-being",false,2663,,,,,,,,,
66952022eeb1290c2d6564f7,forced_choice,298,198,"Innovative thoughts",50,"Creativity and imagination",true,"Ability to wait",62,"Patience",true,"Innovative thoughts",50,"Creativity and imagination",true,"Ability to wait",62,"Patience",true,1582,,,,,,,,,
66952022eeb1290c2d6564f7,forced_choice,299,198,"Planning",42,"Planning",false,"Accountability",66,"Responsibility",true,"Accountability",66,"Responsibility",true,"Planning",42,"Planning",false,1419,,,,,,,,,
66952022eeb1290c2d6564f7,forced_choice,300,198,"Self-awareness",76,"Self-awareness",false,"Restraint",75,"Self-control",true,"Self-awareness",76,"Self-awareness",false,"Restraint",75,"Self-control",true,1448,,,,,,,,,
66952022eeb1290c2d6564f7,forced_choice,301,198,"Gender expression",18,"Sexual behavior",true,"Controlling feelings",29,"Managing emotions",true,"Controlling feelings",29,"Managing emotions",true,"Gender expression",18,"Sexual behavior",true,1665,,,,,,,,,
66952022eeb1290c2d6564f7,forced_choice,302,198,"Respectful",61,"Politeness",true,"Emotional well-being",84,"Emotional well-being",false,"Respectful",61,"Politeness",true,"Emotional well-being",84,"Emotional well-being",false,1515,,,,,,,,,
66952022eeb1290c2d6564f7,forced_choice,303,198,"Prospective view",72,"Future outlook",true,"Respectful",61,"Politeness",true,"Prospective view",72,"Future outlook",true,"Respectful",61,"Politeness",true,1628,,,,,,,,,
66952022eeb1290c2d6564f7,forced_choice,304,198,"Justice",60,"Fairness",true,"Innovative thoughts",50,"Creativity and imagination",true,"Innovative thoughts",50,"Creativity and imagination",true,"Justice",60,"Fairness",true,1737,,,,,,,,,
66952022eeb1290c2d6564f7,forced_choice,305,198,"Self-acceptance",79,"Self-acceptance",false,"Drug consumption",87,"Substance use",true,"Self-acceptance",79,"Self-acceptance",false,"Drug consumption",87,"Substance use",true,1149,,,,,,,,,
66952022eeb1290c2d6564f7,forced_choice,306,198,"Observation",7,"Perception",true,"Controlling feelings",29,"Managing emotions",true,"Observation",7,"Perception",true,"Controlling feelings",29,"Managing emotions",true,1427,,,,,,,,,
66952022eeb1290c2d6564f7,forced_choice,307,198,"Justice",60,"Fairness",true,"Emotional well-being",84,"Emotional well-being",false,"Emotional well-being",84,"Emotional well-being",false,"Justice",60,"Fairness",true,2835,,,,,,,,,
66952022eeb1290c2d6564f7,forced_choice,308,198,"Self-acceptance",79,"Self-acceptance",false,"Restraint",75,"Self-control",true,"Self-acceptance",79,"Self-acceptance",false,"Restraint",75,"Self-control",true,1699,,,,,,,,,
66952022eeb1290c2d6564f7,forced_choice,309,198,"Initiative",69,"Initiative",false,"Ability to wait",62,"Patience",true,"Ability to wait",62,"Patience",true,"Initiative",69,"Initiative",false,2882,,,,,,,,,
66952022eeb1290c2d6564f7,forced_choice,310,198,"Collaboration with others",12,"Social cooperation",true,"Drug consumption",87,"Substance use",true,"Collaboration with others",12,"Social cooperation",true,"Drug consumption",87,"Substance use",true,1299,,,,,,,,,
66952022eeb1290c2d6564f7,forced_choice,311,198,"Gender expression",18,"Sexual behavior",true,"Emotional well-being",84,"Emotional well-being",false,"Emotional well-being",84,"Emotional well-being",false,"Gender expression",18,"Sexual behavior",true,3032,,,,,,,,,
66952022eeb1290c2d6564f7,forced_choice,312,198,"Relationships with teachers",11,"Relationships with teachers",false,"Mood",32,"Mood",false,"Relationships with teachers",11,"Relationships with teachers",false,"Mood",32,"Mood",false,2099,,,,,,,,,
66952022eeb1290c2d6564f7,forced_choice,313,198,"Self-reliance",68,"Independence",true,"Initiative",69,"Initiative",false,"Self-reliance",68,"Independence",true,"Initiative",69,"Initiative",false,1494,,,,,,,,,
66952022eeb1290c2d6564f7,forced_choice,314,198,"Self-acceptance",79,"Self-acceptance",false,"Ability to wait",62,"Patience",true,"Ability to wait",62,"Patience",true,"Self-acceptance",79,"Self-acceptance",false,2937,,,,,,,,,
66952022eeb1290c2d6564f7,forced_choice,315,198,"Gender expression",18,"Sexual behavior",true,"Innovative thoughts",50,"Creativity and imagination",true,"Gender expression",18,"Sexual behavior",true,"Innovative thoughts",50,"Creativity and imagination",true,1449,,,,,,,,,
66952022eeb1290c2d6564f7,forced_choice,316,198,"Innovative thoughts",50,"Creativity and imagination",true,"Planning",42,"Planning",false,"Innovative thoughts",50,"Creativity and imagination",true,"Planning",42,"Planning",false,1328,,,,,,,,,
66952022eeb1290c2d6564f7,forced_choice,317,198,"Ability to wait",62,"Patience",true,"Controlling feelings",29,"Managing emotions",true,"Controlling feelings",29,"Managing emotions",true,"Ability to wait",62,"Patience",true,1902,,,,,,,,,
66952022eeb1290c2d6564f7,forced_choice,318,198,"Gender expression",18,"Sexual behavior",true,"Self-reliance",68,"Independence",true,"Gender expression",18,"Sexual behavior",true,"Self-reliance",68,"Independence",true,2165,,,,,,,,,
66952022eeb1290c2d6564f7,forced_choice,319,198,"Self-reliance",68,"Independence",true,"Receptive communication",2,"Receptive communication",false,"Receptive communication",2,"Receptive communication",false,"Self-reliance",68,"Independence",true,1349,,,,,,,,,
66952022eeb1290c2d6564f7,forced_choice,320,198,"Justice",60,"Fairness",true,"Mood",32,"Mood",false,"Justice",60,"Fairness",true,"Mood",32,"Mood",false,1732,,,,,,,,,
66952022eeb1290c2d6564f7,forced_choice,321,198,"Controlling feelings",29,"Managing emotions",true,"Emotional well-being",84,"Emotional well-being",false,"Emotional well-being",84,"Emotional well-being",false,"Controlling feelings",29,"Managing emotions",true,5499,,,,,,,,,
66952022eeb1290c2d6564f7,forced_choice,322,198,"Initiative",69,"Initiative",false,"Planning",42,"Planning",false,"Planning",42,"Planning",false,"Initiative",69,"Initiative",false,2777,,,,,,,,,
66952022eeb1290c2d6564f7,forced_choice,323,198,"Helpfulness",63,"Helpfulness",false,"Respectful",61,"Politeness",true,"Respectful",61,"Politeness",true,"Helpfulness",63,"Helpfulness",false,1230,,,,,,,,,
66952022eeb1290c2d6564f7,forced_choice,324,198,"Reasoning ability",35,"Reasoning ability",false,"Self-awareness",76,"Self-awareness",false,"Reasoning ability",35,"Reasoning ability",false,"Self-awareness",76,"Self-awareness",false,1468,,,,,,,,,
