user_id,task,trial_index,subset_index,left_term,left_construct_id,left_canonical,left_is_synonym,right_term,right_construct_id,right_canonical,right_is_synonym,chosen_term,chosen_construct_id,chosen_canonical,chosen_is_synonym,unchosen_term,unchosen_construct_id,unchosen_canonical,unchosen_is_synonym,response_time,correct_word,chosen_word,passed,grade_levels,special_needs,school_type,experience,class_size,country
664b5195ae42ba03b70189c6,demographics,,,,,,,,,,,,,,,,,,,,,,,"middle|high_school","no","public","2-5","15-25","Kenya"
664b5195ae42ba03b70189c6,forced_choice,0,57,"Requesting assistance",3,"Seeking help",true,"Response to criticism",39,"Learning from feedback and mistakes",true,"Requesting assistance",3,"Seeking help",true,"Response to criticism",39,"Learning from feedback and mistakes",true,28515,,,,,,,,,
664b5195ae42ba03b70189c6,forced_choice,1,57,"Recognition of feelings",31,"Emotional awareness",true,"Asking questions",4,"Asking questions",false,"Asking questions",4,"Asking questions",false,"Recognition of feelings",31,"Emotional awareness",true,43295,,,,,,,,,
664b5195ae42ba03b70189c6,forced_choice,2,57,"Requesting assistance",3,"Seeking help",true,"Learning new things",38,"Learning new things",false,"Requesting assistance",3,"Seeking help",true,"Learning new things",38,"Learning new things",false,37085,,,,,,,,,
664b5195ae42ba03b70189c6,forced_choice,3,57,"Self-awareness",76,"Self-awareness",false,"Politeness",61,"Politeness",false,"Politeness",61,"Politeness",false,"Self-awareness",76,"Self-awareness",false,14344,,,,,,,,,
664b5195ae42ba03b70189c6,forced_choice,4,57,"Politeness",61,"Politeness",false,"Asking questions",4,"Asking questions",false,"Asking questions",4,"Asking questions",false,"Politeness",61,"Politeness",false,10758,,,,,,,,,
664b5195ae42ba03b70189c6,forced_choice,5,57,"Managing thoughts",34,"Managing thoughts",false,"Recognition of feelings",31,"Emotional awareness",true,"Recognition of feelings",31,"Emotional awareness",true,"Managing thoughts",34,"Managing thoughts",false,8615,,,,,,,,,
664b5195ae42ba03b70189c6,forced_choice,6,57,"Politeness",61,"Politeness",false,"Recognition of feelings",31,"Emotional awareness",true,"Recognition of feelings",31,"Emotional awareness",true,"Politeness",61,"Politeness",false,11993,,,,,,,,,
664b5195ae42ba03b70189c6,forced_choice,7,57,"Recreation",19,"Play",true,"Managing thoughts",34,"Managing thoughts",false,"Managing thoughts",34,"Managing thoughts",false,"Recreation",19,"Play",true,7821,,,,,,,,,
664b5195ae42ba03b70189c6,forced_choice,8,57,"Showing feelings",30,"Emotional expression",true,"Relationships with teachers",11,"Relationships with teachers",false,"Relationships with teachers",11,"Relationships with teachers",false,"Showing feelings",30,"Emotional expression",true,4341,,,,,,,,,
664b5195ae42ba03b70189c6,forced_choice,9,57,"Penmanship",53,"Writing",true,"Motivation",54,"Motivation",false,"Motivation",54,"Motivation",false,"Penmanship",53,"Writing",true,2355,,,,,,,,,
664b5195ae42ba03b70189c6,forced_choice,10,57,"Penmanship",53,"Writing",true,"Showing feelings",30,"Emotional expression",true,"Showing feelings",30,"Emotional expression",true,"Penmanship",53,"Writing",true,5197,,,,,,,,,
664b5195ae42ba03b70189c6,forced_choice,11,57,"Motivation",54,"Motivation",false,"Response to criticism",39,"Learning from feedback and mistakes",true,"Motivation",54,"Motivation",false,"Response to criticism",39,"Learning from feedback and mistakes",true,2123,,,,,,,,,
664b5195ae42ba03b70189c6,forced_choice,12,57,"Recognition of feelings",31,"Emotional awareness",true,"Following directions",5,"Following directions",false,"Following directions",5,"Following directions",false,"Recognition of feelings",31,"Emotional awareness",true,3191,,,,,,,,,
664b5195ae42ba03b70189c6,forced_choice,13,57,"Asking questions",4,"Asking questions",false,"Personal appearance",82,"Self-care / hygiene",true,"Asking questions",4,"Asking questions",false,"Personal appearance",82,"Self-care / hygiene",true,5041,,,,,,,,,
664b5195ae42ba03b70189c6,forced_choice,14,57,"Response to criticism",39,"Learning from feedback and mistakes",true,"Recreation",19,"Play",true,"Recreation",19,"Play",true,"Response to criticism",39,"Learning from feedback and mistakes",true,5666,,,,,,,,,
664b5195ae42ba03b70189c6,forced_choice,15,57,"Asking questions",4,"Asking questions",false,"Psychological balance",84,"Emotional well-being",true,"Psychological balance",84,"Emotional well-being",true,"Asking questions",4,"Asking questions",false,3358,,,,,,,,,
664b5195ae42ba03b70189c6,forced_choice,16,57,"Social awareness",16,"Social awareness",false,"Learning new things",38,"Learning new things",false,"Social awareness",16,"Social awareness",false,"Learning new things",38,"Learning new things",false,4176,,,,,,,,,
664b5195ae42ba03b70189c6,forced_choice,17,57,"Following directions",5,"Following directions",false,"Starting projects",46,"Task initiation",true,"Following directions",5,"Following directions",false,"Starting projects",46,"Task initiation",true,2733,,,,,,,,,
664b5195ae42ba03b70189c6,forced_choice,18,57,"Relationships with teachers",11,"Relationships with teachers",false,"Recreation",19,"Play",true,"Relationships with teachers",11,"Relationships with teachers",false,"Recreation",19,"Play",true,2694,,,,,,,,,
664b5195ae42ba03b70189c6,forced_choice,19,57,"Requesting assistance",3,"Seeking help",true,"Managing thoughts",34,"Managing thoughts",false,"Requesting assistance",3,"Seeking help",true,"Managing thoughts",34,"Managing thoughts",false,4765,,,,,,,,,
664b5195ae42ba03b70189c6,forced_choice,20,57,"Strategic preparation",42,"Planning",true,"Asking questions",4,"Asking questions",false,"Strategic preparation",42,"Planning",true,"Asking questions",4,"Asking questions",false,2309,,,,,,,,,
664b5195ae42ba03b70189c6,forced_choice,21,57,"Social conformity",22,"Response to peer pressure",true,"Future outlook",72,"Future outlook",false,"Social conformity",22,"Response to peer pressure",true,"Future outlook",72,"Future outlook",false,2242,,,,,,,,,
664b5195ae42ba03b70189c6,forced_choice,22,57,"Relationships with teachers",11,"Relationships with teachers",false,"Requesting assistance",3,"Seeking help",true,"Requesting assistance",3,"Seeking help",true,"Relationships with teachers",11,"Relationships with teachers",false,3706,,,,,,,,,
664b5195ae42ba03b70189c6,forced_choice,23,57,"Recreation",19,"Play",true,"Psychological balance",84,"Emotional well-being",true,"Psychological balance",84,"Emotional well-being",true,"Recreation",19,"Play",true,2133,,,,,,,,,
664b5195ae42ba03b70189c6,forced_choice,24,57,"Social conformity",22,"Response to peer pressure",true,"Penmanship",53,"Writing",true,"Social conformity",22,"Response to peer pressure",true,"Penmanship",53,"Writing",true,1774,,,,,,,,,
664b5195ae42ba03b70189c6,forced_choice,25,57,"Future outlook",72,"Future outlook",false,"Reasoning ability",35,"Reasoning ability",false,"Reasoning ability",35,"Reasoning ability",false,"Future outlook",72,"Future outlook",false,4378,,,,,,,,,
664b5195ae42ba03b70189c6,forced_choice,26,57,"Respect for others",59,"Respect for others",false,"Reasoning ability",35,"Reasoning ability",false,"Respect for others",59,"Respect for others",false,"Reasoning ability",35,"Reasoning ability",false,1940,,,,,,,,,
664b5195ae42ba03b70189c6,forced_choice,27,57,"Learning new things",38,"Learning new things",false,"Text comprehension",52,"Reading",true,"Learning new things",38,"Learning new things",false,"Text comprehension",52,"Reading",true,3588,,,,,,,,,
664b5195ae42ba03b70189c6,forced_choice,28,57,"Text comprehension",52,"Reading",true,"Psychological balance",84,"Emotional well-being",true,"Psychological balance",84,"Emotional well-being",true,"Text comprehension",52,"Reading",true,3568,,,,,,,,,
664b5195ae42ba03b70189c6,forced_choice,29,57,"Relationships with teachers",11,"Relationships with teachers",false,"Psychological balance",84,"Emotional well-being",true,"Psychological balance",84,"Emotional well-being",true,"Relationships with teachers",11,"Relationships with teachers",false,3578,,,,,,,,,
664b5195ae42ba03b70189c6,forced_choice,30,57,"Strategic preparation",42,"Planning",true,"Motivation",54,"Motivation",false,"Motivation",54,"Motivation",false,"Strategic preparation",42,"Planning",true,3532,,,,,,,,,
664b5195ae42ba03b70189c6,forced_choice,31,57,"Relationships with teachers",11,"Relationships with teachers",false,"Managing thoughts",34,"Managing thoughts",false,"Relationships with teachers",11,"Relationships with teachers",false,"Managing thoughts",34,"Managing thoughts",false,2907,,,,,,,,,
664b5195ae42ba03b70189c6,forced_choice,32,57,"Motivation",54,"Motivation",false,"Managing thoughts",34,"Managing thoughts",false,"Motivation",54,"Motivation",false,"Managing thoughts",34,"Managing thoughts",false,3198,,,,,,,,,
664b5195ae42ba03b70189c6,forced_choice,33,57,"Reasoning ability",35,"Reasoning ability",false,"Motivation",54,"Motivation",false,"Reasoning ability",35,"Reasoning ability",false,"Motivation",54,"Motivation",false,3054,,,,,,,,,
664b5195ae42ba03b70189c6,forced_choice,34,57,"Strategic preparation",42,"Planning",true,"Starting projects",46,"Task initiation",true,"Strategic preparation",42,"Planning",true,"Starting projects",46,"Task initiation",true,3551,,,,,,,,,
664b5195ae42ba03b70189c6,forced_choice,35,57,"Managing thoughts",34,"Managing thoughts",false,"Learning new things",38,"Learning new things",false,"Learning new things",38,"Learning new things",false,"Managing thoughts",34,"Managing thoughts",false,3763,,,,,,,,,
664b5195ae42ba03b70189c6,forced_choice,36,57,"Penmanship",53,"Writing",true,"Respect for others",59,"Respect for others",false,"Respect for others",59,"Respect for others",false,"Penmanship",53,"Writing",true,1488,,,,,,,,,
664b5195ae42ba03b70189c6,forced_choice,37,57,"Self-awareness",76,"Self-awareness",false,"Learning new things",38,"Learning new things",false,"Self-awareness",76,"Self-awareness",false,"Learning new things",38,"Learning new things",false,4369,,,,,,,,,
664b5195ae42ba03b70189c6,forced_choice,38,57,"Social conformity",22,"Response to peer pressure",true,"Text comprehension",52,"Reading",true,"Social conformity",22,"Response to peer pressure",true,"Text comprehension",52,"Reading",true,1636,,,,,,,,,
664b5195ae42ba03b70189c6,forced_choice,39,57,"Self-awareness",76,"Self-awareness",false,"Strategic preparation",42,"Planning",true,"Self-awareness",76,"Self-awareness",false,"Strategic preparation",42,"Planning",true,5207,,,,,,,,,
664b5195ae42ba03b70189c6,forced_choice,40,57,"Showing feelings",30,"Emotional expression",true,"Recognition of feelings",31,"Emotional awareness",true,"Recognition of feelings",31,"Emotional awareness",true,"Showing feelings",30,"Emotional expression",true,5914,,,,,,,,,
664b5195ae42ba03b70189c6,forced_choice,41,57,"Social conformity",22,"Response to peer pressure",true,"Managing thoughts",34,"Managing thoughts",false,"Social conformity",22,"Response to peer pressure",true,"Managing thoughts",34,"Managing thoughts",false,2979,,,,,,,,,
664b5195ae42ba03b70189c6,forced_choice,42,57,"Student engagement",89,"Class participation",true,"Managing thoughts",34,"Managing thoughts",false,"Student engagement",89,"Class participation",true,"Managing thoughts",34,"Managing thoughts",false,2667,,,,,,,,,
664b5195ae42ba03b70189c6,forced_choice,43,57,"Response to criticism",39,"Learning from feedback and mistakes",true,"Managing thoughts",34,"Managing thoughts",false,"Managing thoughts",34,"Managing thoughts",false,"Response to criticism",39,"Learning from feedback and mistakes",true,3909,,,,,,,,,
664b5195ae42ba03b70189c6,forced_choice,44,57,"Managing thoughts",34,"Managing thoughts",false,"Asking questions",4,"Asking questions",false,"Asking questions",4,"Asking questions",false,"Managing thoughts",34,"Managing thoughts",false,3034,,,,,,,,,
664b5195ae42ba03b70189c6,forced_choice,45,57,"Accomplishing work",47,"Task completion",true,"Self-awareness",76,"Self-awareness",false,"Self-awareness",76,"Self-awareness",false,"Accomplishing work",47,"Task completion",true,3651,,,,,,,,,
664b5195ae42ba03b70189c6,forced_choice,46,57,"Starting projects",46,"Task initiation",true,"Motivation",54,"Motivation",false,"Motivation",54,"Motivation",false,"Starting projects",46,"Task initiation",true,2040,,,,,,,,,
664b5195ae42ba03b70189c6,forced_choice,47,57,"Text comprehension",52,"Reading",true,"Managing thoughts",34,"Managing thoughts",false,"Managing thoughts",34,"Managing thoughts",false,"Text comprehension",52,"Reading",true,3291,,,,,,,,,
664b5195ae42ba03b70189c6,forced_choice,48,57,"Accomplishing work",47,"Task completion",true,"Relationships with teachers",11,"Relationships with teachers",false,"Accomplishing work",47,"Task completion",true,"Relationships with teachers",11,"Relationships with teachers",false,4089,,,,,,,,,
664b5195ae42ba03b70189c6,forced_choice,49,57,"Learning new things",38,"Learning new things",false,"Psychological balance",84,"Emotional well-being",true,"Psychological balance",84,"Emotional well-being",true,"Learning new things",38,"Learning new things",false,7095,,,,,,,,,
664b5195ae42ba03b70189c6,forced_choice,50,57,"Managing thoughts",34,"Managing thoughts",false,"Politeness",61,"Politeness",false,"Politeness",61,"Politeness",false,"Managing thoughts",34,"Managing thoughts",false,3486,,,,,,,,,
664b5195ae42ba03b70189c6,forced_choice,51,57,"Reasoning ability",35,"Reasoning ability",false,"Social awareness",16,"Social awareness",false,"Reasoning ability",35,"Reasoning ability",false,"Social awareness",16,"Social awareness",false,6282,,,,,,,,,
664b5195ae42ba03b70189c6,forced_choice,52,57,"Future outlook",72,"Future outlook",false,"Learning new things",38,"Learning new things",false,"Future outlook",72,"Future outlook",false,"Learning new things",38,"Learning new things",false,2675,,,,,,,,,
664b5195ae42ba03b70189c6,forced_choice,53,57,"Recognition of feelings",31,"Emotional awareness",true,"Self-awareness",76,"Self-awareness",false,"Self-awareness",76,"Self-awareness",false,"Recognition of feelings",31,"Emotional awareness",true,12422,,,,,,,,,
664b5195ae42ba03b70189c6,forced_choice,54,57,"Starting projects",46,"Task initiation",true,"Social conformity",22,"Response to peer pressure",true,"Social conformity",22,"Response to peer pressure",true,"Starting projects",46,"Task initiation",true,5309,,,,,,,,,
664b5195ae42ba03b70189c6,attention_check,55,,,,,,,,,,,,,,,,,,2215,"Respect for others","Respect for others",true,,,,,,
664b5195ae42ba03b70189c6,forced_choice,55,57,"Showing feelings",30,"Emotional expression",true,"Recreation",19,"Play",true,"Showing feelings",30,"Emotional expression",true,"Recreation",19,"Play",true,7406,,,,,,,,,
664b5195ae42ba03b70189c6,forced_choice,56,57,"Relationships with teachers",11,"Relationships with teachers",false,"Future outlook",72,"Future outlook",false,"Future outlook",72,"Future outlook",false,"Relationships with teachers",11,"Relationships with teachers",false,1598,,,,,,,,,
664b5195ae42ba03b70189c6,forced_choice,57,57,"Psychological balance",84,"Emotional well-being",true,"Social awareness",16,"Social awareness",false,"Psychological balance",84,"Emotional well-being",true,"Social awareness",16,"Social awareness",false,2712,,,,,,,,,
664b5195ae42ba03b70189c6,forced_choice,58,57,"Recognition of feelings",31,"Emotional awareness",true,"Reasoning ability",35,"Reasoning ability",false,"Reasoning ability",35,"Reasoning ability",false,"Recognition of feelings",31,"Emotional awareness",true,2543,,,,,,,,,
664b5195ae42ba03b70189c6,forced_choice,59,57,"Reasoning ability",35,"Reasoning ability",false,"Text comprehension",52,"Reading",true,"Reasoning ability",35,"Reasoning ability",false,"Text comprehension",52,"Reading",true,1842,,,,,,,,,
664b5195ae42ba03b70189c6,forced_choice,60,57,"Social awareness",16,"Social awareness",false,"Motivation",54,"Motivation",false,"Motivation",54,"Motivation",false,"Social awareness",16,"Social awareness",false,1396,,,,,,,,,
664b5195ae42ba03b70189c6,forced_choice,61,57,"Starting projects",46,"Task initiation",true,"Psychological balance",84,"Emotional well-being",true,"Psychological balance",84,"Emotional well-being",true,"Starting projects",46,"Task initiation",true,1598,,,,,,,,,
664b5195ae42ba03b70189c6,forced_choice,62,57,"Starting projects",46,"Task initiation",true,"Recognition of feelings",31,"Emotional awareness",true,"Recognition of feelings",31,"Emotional awareness",true,"Starting projects",46,"Task initiation",true,4746,,,,,,,,,
664b5195ae42ba03b70189c6,forced_choice,63,57,"Following directions",5,"Following directions",false,"Social awareness",16,"Social awareness",false,"Following directions",5,"Following directions",false,"Social awareness",16,"Social awareness",false,1331,,,,,,,,,
664b5195ae42ba03b70189c6,forced_choice,64,57,"Starting projects",46,"Task initiation",true,"Respect for others",59,"Respect for others",false,"Respect for others",59,"Respect for others",false,"Starting projects",46,"Task initiation",true,2188,,,,,,,,,
664b5195ae42ba03b70189c6,forced_choice,65,57,"Future outlook",72,"Future outlook",false,"Psychological balance",84,"Emotional well-being",true,"Psychological balance",84,"Emotional well-being",true,"Future outlook",72,"Future outlook",false,3927,,,,,,,,,
664b5195ae42ba03b70189c6,forced_choice,66,57,"Personal appearance",82,"Self-care / hygiene",true,"Learning new things",38,"Learning new things",false,"Learning new things",38,"Learning new things",false,"Personal appearance",82,"Self-care / hygiene",true,6427,,,,,,,,,
664b5195ae42ba03b70189c6,forced_choice,67,57,"Showing feelings",30,"Emotional expression",true,"Personal appearance",82,"Self-care / hygiene",true,"Showing feelings",30,"Emotional expression",true,"Personal appearance",82,"Self-care / hygiene",true,2418,,,,,,,,,
664b5195ae42ba03b70189c6,forced_choice,68,57,"Learning new things",38,"Learning new things",false,"Politeness",61,"Politeness",false,"Learning new things",38,"Learning new things",false,"Politeness",61,"Politeness",false,3016,,,,,,,,,
664b5195ae42ba03b70189c6,forced_choice,69,57,"Personal appearance",82,"Self-care / hygiene",true,"Penmanship",53,"Writing",true,"Personal appearance",82,"Self-care / hygiene",true,"Penmanship",53,"Writing",true,2529,,,,,,,,,
664b5195ae42ba03b70189c6,forced_choice,70,57,"Personal appearance",82,"Self-care / hygiene",true,"Accomplishing work",47,"Task completion",true,"Accomplishing work",47,"Task completion",true,"Personal appearance",82,"Self-care / hygiene",true,6025,,,,,,,,,
664b5195ae42ba03b70189c6,forced_choice,71,57,"Penmanship",53,"Writing",true,"Accomplishing work",47,"Task completion",true,"Accomplishing work",47,"Task completion",true,"Penmanship",53,"Writing",true,18953,,,,,,,,,
664b5195ae42ba03b70189c6,forced_choice,72,57,"Managing thoughts",34,"Managing thoughts",false,"Respect for others",59,"Respect for others",false,"Respect for others",59,"Respect for others",false,"Managing thoughts",34,"Managing thoughts",false,4494,,,,,,,,,
664b5195ae42ba03b70189c6,forced_choice,73,57,"Requesting assistance",3,"Seeking help",true,"Personal appearance",82,"Self-care / hygiene",true,"Requesting assistance",3,"Seeking help",true,"Personal appearance",82,"Self-care / hygiene",true,2409,,,,,,,,,
664b5195ae42ba03b70189c6,forced_choice,74,57,"Response to criticism",39,"Learning from feedback and mistakes",true,"Social conformity",22,"Response to peer pressure",true,"Social conformity",22,"Response to peer pressure",true,"Response to criticism",39,"Learning from feedback and mistakes",true,2251,,,,,,,,,
664b5195ae42ba03b70189c6,forced_choice,75,57,"Requesting assistance",3,"Seeking help",true,"Asking questions",4,"Asking questions",false,"Requesting assistance",3,"Seeking help",true,"Asking questions",4,"Asking questions",false,3549,,,,,,,,,
664b5195ae42ba03b70189c6,forced_choice,76,57,"Recreation",19,"Play",true,"Social conformity",22,"Response to peer pressure",true,"Social conformity",22,"Response to peer pressure",true,"Recreation",19,"Play",true,1323,,,,,,,,,
664b5195ae42ba03b70189c6,forced_choice,77,57,"Relationships with teachers",11,"Relationships with teachers",false,"Politeness",61,"Politeness",false,"Relationships with teachers",11,"Relationships with teachers",false,"Politeness",61,"Politeness",false,3484,,,,,,,,,
664b5195ae42ba03b70189c6,forced_choice,78,57,"Student engagement",89,"Class participation",true,"Response to criticism",39,"Learning from feedback and mistakes",true,"Student engagement",89,"Class participation",true,"Response to criticism",39,"Learning from feedback and mistakes",true,2520,,,,,,,,,
664b5195ae42ba03b70189c6,forced_choice,79,57,"Respect for others",59,"Respect for others",false,"Politeness",61,"Politeness",false,"Respect for others",59,"Respect for others",false,"Politeness",61,"Politeness",false,1727,,,,,,,,,
664b5195ae42ba03b70189c6,forced_choice,80,57,"Managing thoughts",34,"Managing thoughts",false,"Reasoning ability",35,"Reasoning ability",false,"Reasoning ability",35,"Reasoning ability",false,"Managing thoughts",34,"Managing thoughts",false,2083,,,,,,,,,
664b5195ae42ba03b70189c6,forced_choice,81,57,"Recreation",19,"Play",true,"Politeness",61,"Politeness",false,"Politeness",61,"Politeness",false,"Recreation",19,"Play",true,1833,,,,,,,,,
664b5195ae42ba03b70189c6,forced_choice,82,57,"Recognition of feelings",31,"Emotional awareness",true,"Text comprehension",52,"Reading",true,"Recognition of feelings",31,"Emotional awareness",true,"Text comprehension",52,"Reading",true,7596,,,,,,,,,
664b5195ae42ba03b70189c6,forced_choice,83,57,"Requesting assistance",3,"Seeking help",true,"Psychological balance",84,"Emotional well-being",true,"Requesting assistance",3,"Seeking help",true,"Psychological balance",84,"Emotional well-being",true,1830,,,,,,,,,
664b5195ae42ba03b70189c6,forced_choice,84,57,"Motivation",54,"Motivation",false,"Future outlook",72,"Future outlook",false,"Motivation",54,"Motivation",false,"Future outlook",72,"Future outlook",false,1294,,,,,,,,,
664b5195ae42ba03b70189c6,forced_choice,85,57,"Strategic preparation",42,"Planning",true,"Future outlook",72,"Future outlook",false,"Strategic preparation",42,"Planning",true,"Future outlook",72,"Future outlook",false,2444,,,,,,,,,
664b5195ae42ba03b70189c6,forced_choice,86,57,"Future outlook",72,"Future outlook",false,"Recreation",19,"Play",true,"Future outlook",72,"Future outlook",false,"Recreation",19,"Play",true,1452,,,,,,,,,
664b5195ae42ba03b70189c6,forced_choice,87,57,"Requesting assistance",3,"Seeking help",true,"Student engagement",89,"Class participation",true,"Requesting assistance",3,"Seeking help",true,"Student engagement",89,"Class participation",true,3742,,,,,,,,,
664b5195ae42ba03b70189c6,forced_choice,88,57,"Respect for others",59,"Respect for others",false,"Recreation",19,"Play",true,"Respect for others",59,"Respect for others",false,"Recreation",19,"Play",true,2516,,,,,,,,,
664b5195ae42ba03b70189c6,forced_choice,89,57,"Relationships with teachers",11,"Relationships with teachers",false,"Starting projects",46,"Task initiation",true,"Relationships with teachers",11,"Relationships with teachers",false,"Starting projects",46,"Task initiation",true,3512,,,,,,,,,
664b5195ae42ba03b70189c6,forced_choice,90,57,"Accomplishing work",47,"Task completion",true,"Politeness",61,"Politeness",false,"Accomplishing work",47,"Task completion",true,"Politeness",61,"Politeness",false,1507,,,,,,,,,
664b5195ae42ba03b70189c6,forced_choice,91,57,"Reasoning ability",35,"Reasoning ability",false,"Student engagement",89,"Class participation",true,"Reasoning ability",35,"Reasoning ability",false,"Student engagement",89,"Class participation",true,15969,,,,,,,,,
664b5195ae42ba03b70189c6,forced_choice,92,57,"Starting projects",46,"Task initiation",true,"Showing feelings",30,"Emotional expression",true,"Starting projects",46,"Task initiation",true,"Showing feelings",30,"Emotional expression",true,6890,,,,,,,,,
664b5195ae42ba03b70189c6,forced_choice,93,57,"Relationships with teachers",11,"Relationships with teachers",false,"Penmanship",53,"Writing",true,"Relationships with teachers",11,"Relationships with teachers",false,"Penmanship",53,"Writing",true,2095,,,,,,,,,
664b5195ae42ba03b70189c6,forced_choice,94,57,"Social awareness",16,"Social awareness",false,"Strategic preparation",42,"Planning",true,"Strategic preparation",42,"Planning",true,"Social awareness",16,"Social awareness",false,5363,,,,,,,,,
664b5195ae42ba03b70189c6,forced_choice,95,57,"Recreation",19,"Play",true,"Self-awareness",76,"Self-awareness",false,"Self-awareness",76,"Self-awareness",false,"Recreation",19,"Play",true,1543,,,,,,,,,
664b5195ae42ba03b70189c6,forced_choice,96,57,"Respect for others",59,"Respect for others",false,"Text comprehension",52,"Reading",true,"Respect for others",59,"Respect for others",false,"Text comprehension",52,"Reading",true,2020,,,,,,,,,
664b5195ae42ba03b70189c6,forced_choice,97,57,"Asking questions",4,"Asking questions",false,"Text comprehension",52,"Reading",true,"Asking questions",4,"Asking questions",false,"Text comprehension",52,"Reading",true,2179,,,,,,,,,
664b5195ae42ba03b70189c6,forced_choice,98,57,"Text comprehension",52,"Reading",true,"Student engagement",89,"Class participation",true,"Student engagement",89,"Class participation",true,"Text comprehension",52,"Reading",true,2906,,,,,,,,,
664b5195ae42ba03b70189c6,forced_choice,99,57,"Respect for others",59,"Respect for others",false,"Social awareness",16,"Social awareness",false,"Respect for others",59,"Respect for others",false,"Social awareness",16,"Social awareness",false,2307,,,,,,,,,
664b5195ae42ba03b70189c6,forced_choice,100,57,"Strategic preparation",42,"Planning",true,"Following directions",5,"Following directions",false,"Following directions",5,"Following directions",false,"Strategic preparation",42,"Planning",true,2813,,,,,,,,,
664b5195ae42ba03b70189c6,forced_choice,101,57,"Accomplishing work",47,"Task completion",true,"Psychological balance",84,"Emotional well-being",true,"Accomplishing work",47,"Task completion",true,"Psychological balance",84,"Emotional well-being",true,1653,,,,,,,,,
664b5195ae42ba03b70189c6,forced_choice,102,57,"Social awareness",16,"Social awareness",false,"Recognition of feelings",31,"Emotional awareness",true,"Social awareness",16,"Social awareness",false,"Recognition of feelings",31,"Emotional awareness",true,2308,,,,,,,,,
664b5195ae42ba03b70189c6,forced_choice,103,57,"Future outlook",72,"Future outlook",false,"Student engagement",89,"Class participation",true,"Future outlook",72,"Future outlook",false,"Student engagement",89,"Class participation",true,1221,,,,,,,,,
664b5195ae42ba03b70189c6,forced_choice,104,57,"Recreation",19,"Play",true,"Text comprehension",52,"Reading",true,"Text comprehension",52,"Reading",true,"Recreation",19,"Play",true,2132,,,,,,,,,
664b5195ae42ba03b70189c6,forced_choice,105,57,"Showing feelings",30,"Emotional expression",true,"Future outlook",72,"Future outlook",false,"Future outlook",72,"Future outlook",false,"Showing feelings",30,"Emotional expression",true,3117,,,,,,,,,
664b5195ae42ba03b70189c6,forced_choice,106,57,"Text comprehension",52,"Reading",true,"Following directions",5,"Following directions",false,"Following directions",5,"Following directions",false,"Text comprehension",52,"Reading",true,11887,,,,,,,,,
664b5195ae42ba03b70189c6,forced_choice,107,57,"Politeness",61,"Politeness",false,"Social awareness",16,"Social awareness",false,"Social awareness",16,"Social awareness",false,"Politeness",61,"Politeness",false,1756,,,,,,,,,
664b5195ae42ba03b70189c6,forced_choice,108,57,"Accomplishing work",47,"Task completion",true,"Asking questions",4,"Asking questions",false,"Accomplishing work",47,"Task completion",true,"Asking questions",4,"Asking questions",false,2564,,,,,,,,,
664b5195ae42ba03b70189c6,forced_choice,109,57,"Requesting assistance",3,"Seeking help",true,"Future outlook",72,"Future outlook",false,"Future outlook",72,"Future outlook",false,"Requesting assistance",3,"Seeking help",true,6606,,,,,,,,,
664b5195ae42ba03b70189c6,attention_check,111,,,,,,,,,,,,,,,,,,8411,"Playing with others","Playing with others",true,,,,,,
664b5195ae42ba03b70189c6,forced_choice,110,57,"Showing feelings",30,"Emotional expression",true,"Strategic preparation",42,"Planning",true,"Strategic preparation",42,"Planning",true,"Showing feelings",30,"Emotional expression",true,27696,,,,,,,,,
664b5195ae42ba03b70189c6,forced_choice,111,57,"Recreation",19,"Play",true,"Learning new things",38,"Learning new things",false,"Learning new things",38,"Learning new things",false,"Recreation",19,"Play",true,2261,,,,,,,,,
664b5195ae42ba03b70189c6,forced_choice,112,57,"Relationships with teachers",11,"Relationships with teachers",false,"Student engagement",89,"Class participation",true,"Relationships with teachers",11,"Relationships with teachers",false,"Student engagement",89,"Class participation",true,3246,,,,,,,,,
664b5195ae42ba03b70189c6,forced_choice,113,57,"Starting projects",46,"Task initiation",true,"Learning new things",38,"Learning new things",false,"Starting projects",46,"Task initiation",true,"Learning new things",38,"Learning new things",false,3054,,,,,,,,,
664b5195ae42ba03b70189c6,forced_choice,114,57,"Asking questions",4,"Asking questions",false,"Future outlook",72,"Future outlook",false,"Future outlook",72,"Future outlook",false,"Asking questions",4,"Asking questions",false,2474,,,,,,,,,
664b5195ae42ba03b70189c6,forced_choice,115,57,"Recognition of feelings",31,"Emotional awareness",true,"Future outlook",72,"Future outlook",false,"Future outlook",72,"Future outlook",false,"Recognition of feelings",31,"Emotional awareness",true,1552,,,,,,,,,
664b5195ae42ba03b70189c6,forced_choice,116,57,"Reasoning ability",35,"Reasoning ability",false,"Politeness",61,"Politeness",false,"Reasoning ability",35,"Reasoning ability",false,"Politeness",61,"Politeness",false,28210,,,,,,,,,
664b5195ae42ba03b70189c6,forced_choice,117,57,"Managing thoughts",34,"Managing thoughts",false,"Strategic preparation",42,"Planning",true,"Strategic preparation",42,"Planning",true,"Managing thoughts",34,"Managing thoughts",false,1347,,,,,,,,,
664b5195ae42ba03b70189c6,forced_choice,118,57,"Psychological balance",84,"Emotional well-being",true,"Showing feelings",30,"Emotional expression",true,"Psychological balance",84,"Emotional well-being",true,"Showing feelings",30,"Emotional expression",true,7906,,,,,,,,,
664b5195ae42ba03b70189c6,forced_choice,119,57,"Respect for others",59,"Respect for others",false,"Accomplishing work",47,"Task completion",true,"Accomplishing work",47,"Task completion",true,"Respect for others",59,"Respect for others",false,2372,,,,,,,,,
664b5195ae42ba03b70189c6,forced_choice,120,57,"Social awareness",16,"Social awareness",false,"Social conformity",22,"Response to peer pressure",true,"Social conformity",22,"Response to peer pressure",true,"Social awareness",16,"Social awareness",false,1413,,,,,,,,,
664b5195ae42ba03b70189c6,forced_choice,121,57,"Response to criticism",39,"Learning from feedback and mistakes",true,"Self-awareness",76,"Self-awareness",false,"Self-awareness",76,"Self-awareness",false,"Response to criticism",39,"Learning from feedback and mistakes",true,1341,,,,,,,,,
664b5195ae42ba03b70189c6,forced_choice,122,57,"Learning new things",38,"Learning new things",false,"Penmanship",53,"Writing",true,"Learning new things",38,"Learning new things",false,"Penmanship",53,"Writing",true,1231,,,,,,,,,
664b5195ae42ba03b70189c6,forced_choice,123,57,"Text comprehension",52,"Reading",true,"Politeness",61,"Politeness",false,"Politeness",61,"Politeness",false,"Text comprehension",52,"Reading",true,973,,,,,,,,,
664b5195ae42ba03b70189c6,forced_choice,124,57,"Showing feelings",30,"Emotional expression",true,"Text comprehension",52,"Reading",true,"Showing feelings",30,"Emotional expression",true,"Text comprehension",52,"Reading",true,26222,,,,,,,,,
664b5195ae42ba03b70189c6,forced_choice,125,57,"Student engagement",89,"Class participation",true,"Social conformity",22,"Response to peer pressure",true,"Student engagement",89,"Class participation",true,"Social conformity",22,"Response to peer pressure",true,1599,,,,,,,,,
664b5195ae42ba03b70189c6,forced_choice,126,57,"Social conformity",22,"Response to peer pressure",true,"Showing feelings",30,"Emotional expression",true,"Social conformity",22,"Response to peer pressure",true,"Showing feelings",30,"Emotional expression",true,2316,,,,,,,,,
664b5195ae42ba03b70189c6,forced_choice,127,57,"Respect for others",59,"Respect for others",false,"Asking questions",4,"Asking questions",false,"Respect for others",59,"Respect for others",false,"Asking questions",4,"Asking questions",false,3872,,,,,,,,,
664b5195ae42ba03b70189c6,forced_choice,128,57,"Recognition of feelings",31,"Emotional awareness",true,"Motivation",54,"Motivation",false,"Motivation",54,"Motivation",false,"Recognition of feelings",31,"Emotional awareness",true,1563,,,,,,,,,
664b5195ae42ba03b70189c6,forced_choice,129,57,"Respect for others",59,"Respect for others",false,"Personal appearance",82,"Self-care / hygiene",true,"Respect for others",59,"Respect for others",false,"Personal appearance",82,"Self-care / hygiene",true,2130,,,,,,,,,
664b5195ae42ba03b70189c6,forced_choice,130,57,"Motivation",54,"Motivation",false,"Asking questions",4,"Asking questions",false,"Motivation",54,"Motivation",false,"Asking questions",4,"Asking questions",false,1599,,,,,,,,,
664b5195ae42ba03b70189c6,forced_choice,131,57,"Politeness",61,"Politeness",false,"Requesting assistance",3,"Seeking help",true,"Requesting assistance",3,"Seeking help",true,"Politeness",61,"Politeness",false,5105,,,,,,,,,
664b5195ae42ba03b70189c6,forced_choice,132,57,"Relationships with teachers",11,"Relationships with teachers",false,"Reasoning ability",35,"Reasoning ability",false,"Reasoning ability",35,"Reasoning ability",false,"Relationships with teachers",11,"Relationships with teachers",false,8536,,,,,,,,,
664b5195ae42ba03b70189c6,forced_choice,133,57,"Following directions",5,"Following directions",false,"Self-awareness",76,"Self-awareness",false,"Self-awareness",76,"Self-awareness",false,"Following directions",5,"Following directions",false,5869,,,,,,,,,
664b5195ae42ba03b70189c6,forced_choice,134,57,"Motivation",54,"Motivation",false,"Recreation",19,"Play",true,"Motivation",54,"Motivation",false,"Recreation",19,"Play",true,1644,,,,,,,,,
664b5195ae42ba03b70189c6,forced_choice,135,57,"Student engagement",89,"Class participation",true,"Learning new things",38,"Learning new things",false,"Learning new things",38,"Learning new things",false,"Student engagement",89,"Class participation",true,4921,,,,,,,,,
664b5195ae42ba03b70189c6,forced_choice,136,57,"Personal appearance",82,"Self-care / hygiene",true,"Relationships with teachers",11,"Relationships with teachers",false,"Relationships with teachers",11,"Relationships with teachers",false,"Personal appearance",82,"Self-care / hygiene",true,2165,,,,,,,,,
664b5195ae42ba03b70189c6,forced_choice,137,57,"Personal appearance",82,"Self-care / hygiene",true,"Future outlook",72,"Future outlook",false,"Future outlook",72,"Future outlook",false,"Personal appearance",82,"Self-care / hygiene",true,1672,,,,,,,,,
664b5195ae42ba03b70189c6,forced_choice,138,57,"Accomplishing work",47,"Task completion",true,"Student engagement",89,"Class participation",true,"Accomplishing work",47,"Task completion",true,"Student engagement",89,"Class participation",true,1047,,,,,,,,,
664b5195ae42ba03b70189c6,forced_choice,139,57,"Student engagement",89,"Class participation",true,"Recognition of feelings",31,"Emotional awareness",true,"Student engagement",89,"Class participation",true,"Recognition of feelings",31,"Emotional awareness",true,2632,,,,,,,,,
664b5195ae42ba03b70189c6,forced_choice,140,57,"Requesting assistance",3,"Seeking help",true,"Accomplishing work",47,"Task completion",true,"Accomplishing work",47,"Task completion",true,"Requesting assistance",3,"Seeking help",true,1698,,,,,,,,,
664b5195ae42ba03b70189c6,forced_choice,141,57,"Social conformity",22,"Response to peer pressure",true,"Relationships with teachers",11,"Relationships with teachers",false,"Social conformity",22,"Response to peer pressure",true,"Relationships with teachers",11,"Relationships with teachers",false,1239,,,,,,,,,
664b5195ae42ba03b70189c6,forced_choice,142,57,"Requesting assistance",3,"Seeking help",true,"Recognition of feelings",31,"Emotional awareness",true,"Requesting assistance",3,"Seeking help",true,"Recognition of feelings",31,"Emotional awareness",true,9961,,,,,,,,,
664b5195ae42ba03b70189c6,forced_choice,143,57,"Psychological balance",84,"Emotional well-being",true,"Managing thoughts",34,"Managing thoughts",false,"Managing thoughts",34,"Managing thoughts",false,"Psychological balance",84,"Emotional well-being",true,1403,,,,,,,,,
664b5195ae42ba03b70189c6,forced_choice,144,57,"Strategic preparation",42,"Planning",true,"Politeness",61,"Politeness",false,"Strategic preparation",42,"Planning",true,"Politeness",61,"Politeness",false,204,,,,,,,,,
664b5195ae42ba03b70189c6,forced_choice,145,57,"Learning new things",38,"Learning new things",false,"Respect for others",59,"Respect for others",false,"Respect for others",59,"Respect for others",false,"Learning new things",38,"Learning new things",false,7578,,,,,,,,,
664b5195ae42ba03b70189c6,forced_choice,146,57,"Asking questions",4,"Asking questions",false,"Showing feelings",30,"Emotional expression",true,"Asking questions",4,"Asking questions",false,"Showing feelings",30,"Emotional expression",true,22140,,,,,,,,,
664b5195ae42ba03b70189c6,forced_choice,147,57,"Starting projects",46,"Task initiation",true,"Reasoning ability",35,"Reasoning ability",false,"Starting projects",46,"Task initiation",true,"Reasoning ability",35,"Reasoning ability",false,20627,,,,,,,,,
664b5195ae42ba03b70189c6,forced_choice,148,57,"Psychological balance",84,"Emotional well-being",true,"Self-awareness",76,"Self-awareness",false,"Self-awareness",76,"Self-awareness",false,"Psychological balance",84,"Emotional well-being",true,5667,,,,,,,,,
664b5195ae42ba03b70189c6,forced_choice,149,57,"Student engagement",89,"Class participation",true,"Social awareness",16,"Social awareness",false,"Student engagement",89,"Class participation",true,"Social awareness",16,"Social awareness",false,1625,,,,,,,,,
664b5195ae42ba03b70189c6,forced_choice,150,57,"Text comprehension",52,"Reading",true,"Social awareness",16,"Social awareness",false,"Social awareness",16,"Social awareness",false,"Text comprehension",52,"Reading",true,6106,,,,,,,,,
664b5195ae42ba03b70189c6,forced_choice,151,57,"Respect for others",59,"Respect for others",false,"Psychological balance",84,"Emotional well-being",true,"Respect for others",59,"Respect for others",false,"Psychological balance",84,"Emotional well-being",true,4264,,,,,,,,,
664b5195ae42ba03b70189c6,forced_choice,152,57,"Starting projects",46,"Task initiation",true,"Politeness",61,"Politeness",false,"Starting projects",46,"Task initiation",true,"Politeness",61,"Politeness",false,1102,,,,,,,,,
664b5195ae42ba03b70189c6,forced_choice,153,57,"Relationships with teachers",11,"Relationships with teachers",false,"Response to criticism",39,"Learning from feedback and mistakes",true,"Relationships with teachers",11,"Relationships with teachers",false,"Response to criticism",39,"Learning from feedback and mistakes",true,3063,,,,,,,,,
664b5195ae42ba03b70189c6,forced_choice,154,57,"Personal appearance",82,"Self-care / hygiene",true,"Text comprehension",52,"Reading",true,"Personal appearance",82,"Self-care / hygiene",true,"Text comprehension",52,"Reading",true,6212,,,,,,,,,
664b5195ae42ba03b70189c6,forced_choice,155,57,"Learning new things",38,"Learning new things",false,"Strategic preparation",42,"Planning",true,"Strategic preparation",42,"Planning",true,"Learning new things",38,"Learning new things",false,4626,,,,,,,,,
664b5195ae42ba03b70189c6,forced_choice,156,57,"Response to criticism",39,"Learning from feedback and mistakes",true,"Accomplishing work",47,"Task completion",true,"Accomplishing work",47,"Task completion",true,"Response to criticism",39,"Learning from feedback and mistakes",true,12231,,,,,,,,,
664b5195ae42ba03b70189c6,forced_choice,157,57,"Starting projects",46,"Task initiation",true,"Managing thoughts",34,"Managing thoughts",false,"Starting projects",46,"Task initiation",true,"Managing thoughts",34,"Managing thoughts",false,1590,,,,,,,,,
664b5195ae42ba03b70189c6,forced_choice,158,57,"Response to criticism",39,"Learning from feedback and mistakes",true,"Recognition of feelings",31,"Emotional awareness",true,"Recognition of feelings",31,"Emotional awareness",true,"Response to criticism",39,"Learning from feedback and mistakes",true,2522,,,,,,,,,
664b5195ae42ba03b70189c6,forced_choice,159,57,"Personal appearance",82,"Self-care / hygiene",true,"Recognition of feelings",31,"Emotional awareness",true,"Recognition of feelings",31,"Emotional awareness",true,"Personal appearance",82,"Self-care / hygiene",true,465,,,,,,,,,
664b5195ae42ba03b70189c6,forced_choice,160,57,"Recreation",19,"Play",true,"Requesting assistance",3,"Seeking help",true,"Requesting assistance",3,"Seeking help",true,"Recreation",19,"Play",true,2106,,,,,,,,,
664b5195ae42ba03b70189c6,forced_choice,161,57,"Accomplishing work",47,"Task completion",true,"Reasoning ability",35,"Reasoning ability",false,"Reasoning ability",35,"Reasoning ability",false,"Accomplishing work",47,"Task completion",true,4728,,,,,,,,,
664b5195ae42ba03b70189c6,forced_choice,162,57,"Response to criticism",39,"Learning from feedback and mistakes",true,"Psychological balance",84,"Emotional well-being",true,"Psychological balance",84,"Emotional well-being",true,"Response to criticism",39,"Learning from feedback and mistakes",true,1387,,,,,,,,,
664b5195ae42ba03b70189c6,forced_choice,163,57,"Reasoning ability",35,"Reasoning ability",false,"Penmanship",53,"Writing",true,"Reasoning ability",35,"Reasoning ability",false,"Penmanship",53,"Writing",true,1378,,,,,,,,,
664b5195ae42ba03b70189c6,forced_choice,164,57,"Text comprehension",52,"Reading",true,"Starting projects",46,"Task initiation",true,"Starting projects",46,"Task initiation",true,"Text comprehension",52,"Reading",true,1239,,,,,,,,,
664b5195ae42ba03b70189c6,attention_check,167,,,,,,,,,,,,,,,,,,5463,"Playing with others","Playing with others",true,,,,,,
664b5195ae42ba03b70189c6,forced_choice,165,57,"Penmanship",53,"Writing",true,"Asking questions",4,"Asking questions",false,"Asking questions",4,"Asking questions",false,"Penmanship",53,"Writing",true,8020,,,,,,,,,
664b5195ae42ba03b70189c6,forced_choice,166,57,"Text comprehension",52,"Reading",true,"Relationships with teachers",11,"Relationships with teachers",false,"Text comprehension",52,"Reading",true,"Relationships with teachers",11,"Relationships with teachers",false,3957,,,,,,,,,
664b5195ae42ba03b70189c6,forced_choice,167,57,"Politeness",61,"Politeness",false,"Future outlook",72,"Future outlook",false,"Future outlook",72,"Future outlook",false,"Politeness",61,"Politeness",false,1414,,,,,,,,,
664b5195ae42ba03b70189c6,forced_choice,168,57,"Personal appearance",82,"Self-care / hygiene",true,"Starting projects",46,"Task initiation",true,"Starting projects",46,"Task initiation",true,"Personal appearance",82,"Self-care / hygiene",true,13223,,,,,,,,,
664b5195ae42ba03b70189c6,forced_choice,169,57,"Student engagement",89,"Class participation",true,"Respect for others",59,"Respect for others",false,"Respect for others",59,"Respect for others",false,"Student engagement",89,"Class participation",true,4450,,,,,,,,,
664b5195ae42ba03b70189c6,forced_choice,170,57,"Penmanship",53,"Writing",true,"Future outlook",72,"Future outlook",false,"Future outlook",72,"Future outlook",false,"Penmanship",53,"Writing",true,1129,,,,,,,,,
664b5195ae42ba03b70189c6,forced_choice,171,57,"Social awareness",16,"Social awareness",false,"Starting projects",46,"Task initiation",true,"Starting projects",46,"Task initiation",true,"Social awareness",16,"Social awareness",false,1001,,,,,,,,,
664b5195ae42ba03b70189c6,forced_choice,172,57,"Politeness",61,"Politeness",false,"Following directions",5,"Following directions",false,"Following directions",5,"Following directions",false,"Politeness",61,"Politeness",false,2704,,,,,,,,,
664b5195ae42ba03b70189c6,forced_choice,173,57,"Social conformity",22,"Response to peer pressure",true,"Accomplishing work",47,"Task completion",true,"Accomplishing work",47,"Task completion",true,"Social conformity",22,"Response to peer pressure",true,1571,,,,,,,,,
664b5195ae42ba03b70189c6,forced_choice,174,57,"Student engagement",89,"Class participation",true,"Personal appearance",82,"Self-care / hygiene",true,"Student engagement",89,"Class participation",true,"Personal appearance",82,"Self-care / hygiene",true,2063,,,,,,,,,
664b5195ae42ba03b70189c6,forced_choice,175,57,"Relationships with teachers",11,"Relationships with teachers",false,"Respect for others",59,"Respect for others",false,"Respect for others",59,"Respect for others",false,"Relationships with teachers",11,"Relationships with teachers",false,2257,,,,,,,,,
664b5195ae42ba03b70189c6,forced_choice,176,57,"Response to criticism",39,"Learning from feedback and mistakes",true,"Asking questions",4,"Asking questions",false,"Asking questions",4,"Asking questions",false,"Response to criticism",39,"Learning from feedback and mistakes",true,5948,,,,,,,,,
664b5195ae42ba03b70189c6,forced_choice,177,57,"Personal appearance",82,"Self-care / hygiene",true,"Politeness",61,"Politeness",false,"Politeness",61,"Politeness",false,"Personal appearance",82,"Self-care / hygiene",true,1513,,,,,,,,,
664b5195ae42ba03b70189c6,forced_choice,178,57,"Requesting assistance",3,"Seeking help",true,"Motivation",54,"Motivation",false,"Motivation",54,"Motivation",false,"Requesting assistance",3,"Seeking help",true,3190,,,,,,,,,
664b5195ae42ba03b70189c6,forced_choice,179,57,"Student engagement",89,"Class participation",true,"Psychological balance",84,"Emotional well-being",true,"Psychological balance",84,"Emotional well-being",true,"Student engagement",89,"Class participation",true,2483,,,,,,,,,
664b5195ae42ba03b70189c6,forced_choice,180,57,"Self-awareness",76,"Self-awareness",false,"Reasoning ability",35,"Reasoning ability",false,"Reasoning ability",35,"Reasoning ability",false,"Self-awareness",76,"Self-awareness",false,5794,,,,,,,,,
664b5195ae42ba03b70189c6,forced_choice,181,57,"Recognition of feelings",31,"Emotional awareness",true,"Learning new things",38,"Learning new things",false,"Learning new things",38,"Learning new things",false,"Recognition of feelings",31,"Emotional awareness",true,6780,,,,,,,,,
664b5195ae42ba03b70189c6,forced_choice,182,57,"Student engagement",89,"Class participation",true,"Starting projects",46,"Task initiation",true,"Starting projects",46,"Task initiation",true,"Student engagement",89,"Class participation",true,2214,,,,,,,,,
664b5195ae42ba03b70189c6,forced_choice,183,57,"Penmanship",53,"Writing",true,"Text comprehension",52,"Reading",true,"Text comprehension",52,"Reading",true,"Penmanship",53,"Writing",true,964,,,,,,,,,
664b5195ae42ba03b70189c6,forced_choice,184,57,"Accomplishing work",47,"Task completion",true,"Future outlook",72,"Future outlook",false,"Accomplishing work",47,"Task completion",true,"Future outlook",72,"Future outlook",false,7958,,,,,,,,,
664b5195ae42ba03b70189c6,forced_choice,185,57,"Learning new things",38,"Learning new things",false,"Asking questions",4,"Asking questions",false,"Learning new things",38,"Learning new things",false,"Asking questions",4,"Asking questions",false,2105,,,,,,,,,
664b5195ae42ba03b70189c6,forced_choice,186,57,"Managing thoughts",34,"Managing thoughts",false,"Self-awareness",76,"Self-awareness",false,"Self-awareness",76,"Self-awareness",false,"Managing thoughts",34,"Managing thoughts",false,1443,,,,,,,,,
664b5195ae42ba03b70189c6,forced_choice,187,57,"Accomplishing work",47,"Task completion",true,"Starting projects",46,"Task initiation",true,"Accomplishing work",47,"Task completion",true,"Starting projects",46,"Task initiation",true,1993,,,,,,,,,
664b5195ae42ba03b70189c6,forced_choice,188,57,"Student engagement",89,"Class participation",true,"Strategic preparation",42,"Planning",true,"Strategic preparation",42,"Planning",true,"Student engagement",89,"Class participation",true,3761,,,,,,,,,
664b5195ae42ba03b70189c6,forced_choice,189,57,"Strategic preparation",42,"Planning",true,"Reasoning ability",35,"Reasoning ability",false,"Reasoning ability",35,"Reasoning ability",false,"Strategic preparation",42,"Planning",true,1902,,,,,,,,,
664b5195ae42ba03b70189c6,forced_choice,190,57,"Future outlook",72,"Future outlook",false,"Following directions",5,"Following directions",false,"Future outlook",72,"Future outlook",false,"Following directions",5,"Following directions",false,2583,,,,,,,,,
664b5195ae42ba03b70189c6,forced_choice,191,57,"Showing feelings",30,"Emotional expression",true,"Self-awareness",76,"Self-awareness",false,"Self-awareness",76,"Self-awareness",false,"Showing feelings",30,"Emotional expression",true,11426,,,,,,,,,
664b5195ae42ba03b70189c6,forced_choice,192,57,"Strategic preparation",42,"Planning",true,"Personal appearance",82,"Self-care / hygiene",true,"Strategic preparation",42,"Planning",true,"Personal appearance",82,"Self-care / hygiene",true,5381,,,,,,,,,
664b5195ae42ba03b70189c6,forced_choice,193,57,"Showing feelings",30,"Emotional expression",true,"Following directions",5,"Following directions",false,"Following directions",5,"Following directions",false,"Showing feelings",30,"Emotional expression",true,1961,,,,,,,,,
664b5195ae42ba03b70189c6,forced_choice,194,57,"Social conformity",22,"Response to peer pressure",true,"Politeness",61,"Politeness",false,"Social conformity",22,"Response to peer pressure",true,"Politeness",61,"Politeness",false,1126,,,,,,,,,
664b5195ae42ba03b70189c6,forced_choice,195,57,"Student engagement",89,"Class participation",true,"Asking questions",4,"Asking questions",false,"Student engagement",89,"Class participation",true,"Asking questions",4,"Asking questions",false,2649,,,,,,,,,
664b5195ae42ba03b70189c6,forced_choice,196,57,"Psychological balance",84,"Emotional well-being",true,"Personal appearance",82,"Self-care / hygiene",true,"Psychological balance",84,"Emotional well-being",true,"Personal appearance",82,"Self-care / hygiene",true,1513,,,,,,,,,
664b5195ae42ba03b70189c6,forced_choice,197,57,"Response to criticism",39,"Learning from feedback and mistakes",true,"Penmanship",53,"Writing",true,"Response to criticism",39,"Learning from feedback and mistakes",true,"Penmanship",53,"Writing",true,1417,,,,,,,,,
664b5195ae42ba03b70189c6,forced_choice,198,57,"Student engagement",89,"Class participation",true,"Following directions",5,"Following directions",false,"Student engagement",89,"Class participation",true,"Following directions",5,"Following directions",false,13470,,,,,,,,,
664b5195ae42ba03b70189c6,forced_choice,199,57,"Starting projects",46,"Task initiation",true,"Future outlook",72,"Future outlook",false,"Starting projects",46,"Task initiation",true,"Future outlook",72,"Future outlook",false,2998,,,,,,,,,
664b5195ae42ba03b70189c6,forced_choice,200,57,"Accomplishing work",47,"Task completion",true,"Strategic preparation",42,"Planning",true,"Strategic preparation",42,"Planning",true,"Accomplishing work",47,"Task completion",true,1773,,,,,,,,,
664b5195ae42ba03b70189c6,forced_choice,201,57,"Motivation",54,"Motivation",false,"Following directions",5,"Following directions",false,"Motivation",54,"Motivation",false,"Following directions",5,"Following directions",false,9687,,,,,,,,,
664b5195ae42ba03b70189c6,forced_choice,202,57,"Respect for others",59,"Respect for others",false,"Response to criticism",39,"Learning from feedback and mistakes",true,"Respect for others",59,"Respect for others",false,"Response to criticism",39,"Learning from feedback and mistakes",true,22802,,,,,,,,,
664b5195ae42ba03b70189c6,forced_choice,203,57,"Recreation",19,"Play",true,"Social awareness",16,"Social awareness",false,"Social awareness",16,"Social awareness",false,"Recreation",19,"Play",true,1101,,,,,,,,,
664b5195ae42ba03b70189c6,forced_choice,204,57,"Asking questions",4,"Asking questions",false,"Starting projects",46,"Task initiation",true,"Starting projects",46,"Task initiation",true,"Asking questions",4,"Asking questions",false,5171,,,,,,,,,
664b5195ae42ba03b70189c6,forced_choice,205,57,"Showing feelings",30,"Emotional expression",true,"Social awareness",16,"Social awareness",false,"Social awareness",16,"Social awareness",false,"Showing feelings",30,"Emotional expression",true,3061,,,,,,,,,
664b5195ae42ba03b70189c6,forced_choice,206,57,"Recreation",19,"Play",true,"Following directions",5,"Following directions",false,"Following directions",5,"Following directions",false,"Recreation",19,"Play",true,3927,,,,,,,,,
664b5195ae42ba03b70189c6,forced_choice,207,57,"Relationships with teachers",11,"Relationships with teachers",false,"Social awareness",16,"Social awareness",false,"Social awareness",16,"Social awareness",false,"Relationships with teachers",11,"Relationships with teachers",false,3144,,,,,,,,,
664b5195ae42ba03b70189c6,forced_choice,208,57,"Requesting assistance",3,"Seeking help",true,"Following directions",5,"Following directions",false,"Following directions",5,"Following directions",false,"Requesting assistance",3,"Seeking help",true,2040,,,,,,,,,
664b5195ae42ba03b70189c6,forced_choice,209,57,"Reasoning ability",35,"Reasoning ability",false,"Recreation",19,"Play",true,"Reasoning ability",35,"Reasoning ability",false,"Recreation",19,"Play",true,3180,,,,,,,,,
664b5195ae42ba03b70189c6,forced_choice,210,57,"Student engagement",89,"Class participation",true,"Showing feelings",30,"Emotional expression",true,"Student engagement",89,"Class participation",true,"Showing feelings",30,"Emotional expression",true,3485,,,,,,,,,
664b5195ae42ba03b70189c6,forced_choice,211,57,"Accomplishing work",47,"Task completion",true,"Text comprehension",52,"Reading",true,"Accomplishing work",47,"Task completion",true,"Text comprehension",52,"Reading",true,1276,,,,,,,,,
664b5195ae42ba03b70189c6,forced_choice,212,57,"Response to criticism",39,"Learning from feedback and mistakes",true,"Reasoning ability",35,"Reasoning ability",false,"Reasoning ability",35,"Reasoning ability",false,"Response to criticism",39,"Learning from feedback and mistakes",true,3596,,,,,,,,,
664b5195ae42ba03b70189c6,forced_choice,213,57,"Self-awareness",76,"Self-awareness",false,"Social conformity",22,"Response to peer pressure",true,"Self-awareness",76,"Self-awareness",false,"Social conformity",22,"Response to peer pressure",true,2694,,,,,,,,,
664b5195ae42ba03b70189c6,forced_choice,214,57,"Penmanship",53,"Writing",true,"Following directions",5,"Following directions",false,"Following directions",5,"Following directions",false,"Penmanship",53,"Writing",true,1185,,,,,,,,,
664b5195ae42ba03b70189c6,forced_choice,215,57,"Politeness",61,"Politeness",false,"Motivation",54,"Motivation",false,"Motivation",54,"Motivation",false,"Politeness",61,"Politeness",false,5484,,,,,,,,,
664b5195ae42ba03b70189c6,forced_choice,216,57,"Self-awareness",76,"Self-awareness",false,"Penmanship",53,"Writing",true,"Self-awareness",76,"Self-awareness",false,"Penmanship",53,"Writing",true,955,,,,,,,,,
664b5195ae42ba03b70189c6,forced_choice,217,57,"Following directions",5,"Following directions",false,"Accomplishing work",47,"Task completion",true,"Accomplishing work",47,"Task completion",true,"Following directions",5,"Following directions",false,3117,,,,,,,,,
664b5195ae42ba03b70189c6,forced_choice,218,57,"Psychological balance",84,"Emotional well-being",true,"Penmanship",53,"Writing",true,"Psychological balance",84,"Emotional well-being",true,"Penmanship",53,"Writing",true,937,,,,,,,,,
664b5195ae42ba03b70189c6,forced_choice,219,57,"Managing thoughts",34,"Managing thoughts",false,"Following directions",5,"Following directions",false,"Following directions",5,"Following directions",false,"Managing thoughts",34,"Managing thoughts",false,1332,,,,,,,,,
664b5195ae42ba03b70189c6,attention_check,223,,,,,,,,,,,,,,,,,,2849,"Paying attention","Paying attention",true,,,,,,
664b5195ae42ba03b70189c6,forced_choice,220,57,"Recognition of feelings",31,"Emotional awareness",true,"Strategic preparation",42,"Planning",true,"Strategic preparation",42,"Planning",true,"Recognition of feelings",31,"Emotional awareness",true,10488,,,,,,,,,
664b5195ae42ba03b70189c6,forced_choice,221,57,"Self-awareness",76,"Self-awareness",false,"Requesting assistance",3,"Seeking help",true,"Requesting assistance",3,"Seeking help",true,"Self-awareness",76,"Self-awareness",false,4924,,,,,,,,,
664b5195ae42ba03b70189c6,forced_choice,222,57,"Strategic preparation",42,"Planning",true,"Text comprehension",52,"Reading",true,"Strategic preparation",42,"Planning",true,"Text comprehension",52,"Reading",true,1909,,,,,,,,,
664b5195ae42ba03b70189c6,forced_choice,223,57,"Recreation",19,"Play",true,"Recognition of feelings",31,"Emotional awareness",true,"Recognition of feelings",31,"Emotional awareness",true,"Recreation",19,"Play",true,1129,,,,,,,,,
664b5195ae42ba03b70189c6,forced_choice,224,57,"Social conformity",22,"Response to peer pressure",true,"Learning new things",38,"Learning new things",false,"Learning new things",38,"Learning new things",false,"Social conformity",22,"Response to peer pressure",true,4765,,,,,,,,,
664b5195ae42ba03b70189c6,forced_choice,225,57,"Respect for others",59,"Respect for others",false,"Showing feelings",30,"Emotional expression",true,"Respect for others",59,"Respect for others",false,"Showing feelings",30,"Emotional expression",true,2578,,,,,,,,,
664b5195ae42ba03b70189c6,forced_choice,226,57,"Self-awareness",76,"Self-awareness",false,"Personal appearance",82,"Self-care / hygiene",true,"Self-awareness",76,"Self-awareness",false,"Personal appearance",82,"Self-care / hygiene",true,5499,,,,,,,,,
664b5195ae42ba03b70189c6,forced_choice,227,57,"Response to criticism",39,"Learning from feedback and mistakes",true,"Showing feelings",30,"Emotional expression",true,"Showing feelings",30,"Emotional expression",true,"Response to criticism",39,"Learning from feedback and mistakes",true,7810,,,,,,,,,
664b5195ae42ba03b70189c6,forced_choice,228,57,"Requesting assistance",3,"Seeking help",true,"Showing feelings",30,"Emotional expression",true,"Requesting assistance",3,"Seeking help",true,"Showing feelings",30,"Emotional expression",true,1349,,,,,,,,,
664b5195ae42ba03b70189c6,forced_choice,229,57,"Penmanship",53,"Writing",true,"Politeness",61,"Politeness",false,"Politeness",61,"Politeness",false,"Penmanship",53,"Writing",true,1001,,,,,,,,,
664b5195ae42ba03b70189c6,forced_choice,230,57,"Self-awareness",76,"Self-awareness",false,"Respect for others",59,"Respect for others",false,"Respect for others",59,"Respect for others",false,"Self-awareness",76,"Self-awareness",false,1943,,,,,,,,,
664b5195ae42ba03b70189c6,forced_choice,231,57,"Psychological balance",84,"Emotional well-being",true,"Strategic preparation",42,"Planning",true,"Strategic preparation",42,"Planning",true,"Psychological balance",84,"Emotional well-being",true,6003,,,,,,,,,
664b5195ae42ba03b70189c6,forced_choice,232,57,"Student engagement",89,"Class participation",true,"Recreation",19,"Play",true,"Student engagement",89,"Class participation",true,"Recreation",19,"Play",true,1839,,,,,,,,,
664b5195ae42ba03b70189c6,forced_choice,233,57,"Learning new things",38,"Learning new things",false,"Showing feelings",30,"Emotional expression",true,"Learning new things",38,"Learning new things",false,"Showing feelings",30,"Emotional expression",true,1763,,,,,,,,,
664b5195ae42ba03b70189c6,forced_choice,234,57,"Requesting assistance",3,"Seeking help",true,"Strategic preparation",42,"Planning",true,"Strategic preparation",42,"Planning",true,"Requesting assistance",3,"Seeking help",true,3458,,,,,,,,,
664b5195ae42ba03b70189c6,forced_choice,235,57,"Politeness",61,"Politeness",false,"Response to criticism",39,"Learning from feedback and mistakes",true,"Politeness",61,"Politeness",false,"Response to criticism",39,"Learning from feedback and mistakes",true,2207,,,,,,,,,
664b5195ae42ba03b70189c6,forced_choice,236,57,"Motivation",54,"Motivation",false,"Showing feelings",30,"Emotional expression",true,"Motivation",54,"Motivation",false,"Showing feelings",30,"Emotional expression",true,1322,,,,,,,,,
664b5195ae42ba03b70189c6,forced_choice,237,57,"Reasoning ability",35,"Reasoning ability",false,"Following directions",5,"Following directions",false,"Reasoning ability",35,"Reasoning ability",false,"Following directions",5,"Following directions",false,19923,,,,,,,,,
664b5195ae42ba03b70189c6,forced_choice,238,57,"Recognition of feelings",31,"Emotional awareness",true,"Relationships with teachers",11,"Relationships with teachers",false,"Relationships with teachers",11,"Relationships with teachers",false,"Recognition of feelings",31,"Emotional awareness",true,2704,,,,,,,,,
664b5195ae42ba03b70189c6,forced_choice,239,57,"Asking questions",4,"Asking questions",false,"Relationships with teachers",11,"Relationships with teachers",false,"Relationships with teachers",11,"Relationships with teachers",false,"Asking questions",4,"Asking questions",false,1654,,,,,,,,,
664b5195ae42ba03b70189c6,forced_choice,240,57,"Accomplishing work",47,"Task completion",true,"Showing feelings",30,"Emotional expression",true,"Accomplishing work",47,"Task completion",true,"Showing feelings",30,"Emotional expression",true,4379,,,,,,,,,
664b5195ae42ba03b70189c6,forced_choice,241,57,"Requesting assistance",3,"Seeking help",true,"Social awareness",16,"Social awareness",false,"Requesting assistance",3,"Seeking help",true,"Social awareness",16,"Social awareness",false,4111,,,,,,,,,
664b5195ae42ba03b70189c6,forced_choice,242,57,"Personal appearance",82,"Self-care / hygiene",true,"Social awareness",16,"Social awareness",false,"Social awareness",16,"Social awareness",false,"Personal appearance",82,"Self-care / hygiene",true,2810,,,,,,,,,
664b5195ae42ba03b70189c6,forced_choice,243,57,"Psychological balance",84,"Emotional well-being",true,"Reasoning ability",35,"Reasoning ability",false,"Reasoning ability",35,"Reasoning ability",false,"Psychological balance",84,"Emotional well-being",true,6781,,,,,,,,,
664b5195ae42ba03b70189c6,forced_choice,244,57,"Managing thoughts",34,"Managing thoughts",false,"Showing feelings",30,"Emotional expression",true,"Showing feelings",30,"Emotional expression",true,"Managing thoughts",34,"Managing thoughts",false,3154,,,,,,,,,
664b5195ae42ba03b70189c6,forced_choice,245,57,"Starting projects",46,"Task initiation",true,"Response to criticism",39,"Learning from feedback and mistakes",true,"Starting projects",46,"Task initiation",true,"Response to criticism",39,"Learning from feedback and mistakes",true,4037,,,,,,,,,
664b5195ae42ba03b70189c6,forced_choice,246,57,"Personal appearance",82,"Self-care / hygiene",true,"Recreation",19,"Play",true,"Personal appearance",82,"Self-care / hygiene",true,"Recreation",19,"Play",true,1910,,,,,,,,,
664b5195ae42ba03b70189c6,forced_choice,247,57,"Strategic preparation",42,"Planning",true,"Respect for others",59,"Respect for others",false,"Strategic preparation",42,"Planning",true,"Respect for others",59,"Respect for others",false,3748,,,,,,,,,
664b5195ae42ba03b70189c6,forced_choice,248,57,"Relationships with teachers",11,"Relationships with teachers",false,"Self-awareness",76,"Self-awareness",false,"Self-awareness",76,"Self-awareness",false,"Relationships with teachers",11,"Relationships with teachers",false,9929,,,,,,,,,
664b5195ae42ba03b70189c6,forced_choice,249,57,"Requesting assistance",3,"Seeking help",true,"Starting projects",46,"Task initiation",true,"Requesting assistance",3,"Seeking help",true,"Starting projects",46,"Task initiation",true,3873,,,,,,,,,
664b5195ae42ba03b70189c6,forced_choice,250,57,"Following directions",5,"Following directions",false,"Learning new things",38,"Learning new things",false,"Learning new things",38,"Learning new things",false,"Following directions",5,"Following directions",false,11373,,,,,,,,,
664b5195ae42ba03b70189c6,forced_choice,251,57,"Managing thoughts",34,"Managing thoughts",false,"Personal appearance",82,"Self-care / hygiene",true,"Managing thoughts",34,"Managing thoughts",false,"Personal appearance",82,"Self-care / hygiene",true,2907,,,,,,,,,
664b5195ae42ba03b70189c6,forced_choice,252,57,"Politeness",61,"Politeness",false,"Student engagement",89,"Class participation",true,"Student engagement",89,"Class participation",true,"Politeness",61,"Politeness",false,3974,,,,,,,,,
664b5195ae42ba03b70189c6,forced_choice,253,57,"Personal appearance",82,"Self-care / hygiene",true,"Social conformity",22,"Response to peer pressure",true,"Social conformity",22,"Response to peer pressure",true,"Personal appearance",82,"Self-care / hygiene",true,1755,,,,,,,,,
664b5195ae42ba03b70189c6,forced_choice,254,57,"Requesting assistance",3,"Seeking help",true,"Penmanship",53,"Writing",true,"Requesting assistance",3,"Seeking help",true,"Penmanship",53,"Writing",true,955,,,,,,,,,
664b5195ae42ba03b70189c6,forced_choice,255,57,"Social awareness",16,"Social awareness",false,"Response to criticism",39,"Learning from feedback and mistakes",true,"Social awareness",16,"Social awareness",false,"Response to criticism",39,"Learning from feedback and mistakes",true,1497,,,,,,,,,
664b5195ae42ba03b70189c6,forced_choice,256,57,"Requesting assistance",3,"Seeking help",true,"Text comprehension",52,"Reading",true,"Requesting assistance",3,"Seeking help",true,"Text comprehension",52,"Reading",true,1738,,,,,,,,,
664b5195ae42ba03b70189c6,forced_choice,257,57,"Respect for others",59,"Respect for others",false,"Following directions",5,"Following directions",false,"Respect for others",59,"Respect for others",false,"Following directions",5,"Following directions",false,2529,,,,,,,,,
664b5195ae42ba03b70189c6,forced_choice,258,57,"Social awareness",16,"Social awareness",false,"Managing thoughts",34,"Managing thoughts",false,"Social awareness",16,"Social awareness",false,"Managing thoughts",34,"Managing thoughts",false,1737,,,,,,,,,
664b5195ae42ba03b70189c6,forced_choice,259,57,"Penmanship",53,"Writing",true,"Social awareness",16,"Social awareness",false,"Social awareness",16,"Social awareness",false,"Penmanship",53,"Writing",true,900,,,,,,,,,
664b5195ae42ba03b70189c6,forced_choice,260,57,"Student engagement",89,"Class participation",true,"Penmanship",53,"Writing",true,"Student engagement",89,"Class participation",true,"Penmanship",53,"Writing",true,1680,,,,,,,,,
664b5195ae42ba03b70189c6,forced_choice,261,57,"Social awareness",16,"Social awareness",false,"Self-awareness",76,"Self-awareness",false,"Self-awareness",76,"Self-awareness",false,"Social awareness",16,"Social awareness",false,4150,,,,,,,,,
664b5195ae42ba03b70189c6,forced_choice,262,57,"Relationships with teachers",11,"Relationships with teachers",false,"Strategic preparation",42,"Planning",true,"Strategic preparation",42,"Planning",true,"Relationships with teachers",11,"Relationships with teachers",false,2362,,,,,,,,,
664b5195ae42ba03b70189c6,forced_choice,263,57,"Personal appearance",82,"Self-care / hygiene",true,"Following directions",5,"Following directions",false,"Following directions",5,"Following directions",false,"Personal appearance",82,"Self-care / hygiene",true,2041,,,,,,,,,
664b5195ae42ba03b70189c6,forced_choice,264,57,"Starting projects",46,"Task initiation",true,"Recreation",19,"Play",true,"Starting projects",46,"Task initiation",true,"Recreation",19,"Play",true,2252,,,,,,,,,
664b5195ae42ba03b70189c6,forced_choice,265,57,"Reasoning ability",35,"Reasoning ability",false,"Asking questions",4,"Asking questions",false,"Reasoning ability",35,"Reasoning ability",false,"Asking questions",4,"Asking questions",false,2096,,,,,,,,,
664b5195ae42ba03b70189c6,forced_choice,266,57,"Respect for others",59,"Respect for others",false,"Requesting assistance",3,"Seeking help",true,"Respect for others",59,"Respect for others",false,"Requesting assistance",3,"Seeking help",true,2824,,,,,,,,,
664b5195ae42ba03b70189c6,forced_choice,267,57,"Social conformity",22,"Response to peer pressure",true,"Psychological balance",84,"Emotional well-being",true,"Social conformity",22,"Response to peer pressure",true,"Psychological balance",84,"Emotional well-being",true,4719,,,,,,,,,
664b5195ae42ba03b70189c6,forced_choice,268,57,"Motivation",54,"Motivation",false,"Learning new things",38,"Learning new things",false,"Motivation",54,"Motivation",false,"Learning new things",38,"Learning new things",false,3366,,,,,,,,,
664b5195ae42ba03b70189c6,forced_choice,269,57,"Strategic preparation",42,"Planning",true,"Response to criticism",39,"Learning from feedback and mistakes",true,"Strategic preparation",42,"Planning",true,"Response to criticism",39,"Learning from feedback and mistakes",true,2548,,,,,,,,,
664b5195ae42ba03b70189c6,forced_choice,270,57,"Future outlook",72,"Future outlook",false,"Self-awareness",76,"Self-awareness",false,"Self-awareness",76,"Self-awareness",false,"Future outlook",72,"Future outlook",false,2030,,,,,,,,,
664b5195ae42ba03b70189c6,forced_choice,271,57,"Recognition of feelings",31,"Emotional awareness",true,"Accomplishing work",47,"Task completion",true,"Accomplishing work",47,"Task completion",true,"Recognition of feelings",31,"Emotional awareness",true,5420,,,,,,,,,
664b5195ae42ba03b70189c6,forced_choice,272,57,"Recognition of feelings",31,"Emotional awareness",true,"Social conformity",22,"Response to peer pressure",true,"Social conformity",22,"Response to peer pressure",true,"Recognition of feelings",31,"Emotional awareness",true,2592,,,,,,,,,
664b5195ae42ba03b70189c6,forced_choice,273,57,"Recreation",19,"Play",true,"Penmanship",53,"Writing",true,"Penmanship",53,"Writing",true,"Recreation",19,"Play",true,2060,,,,,,,,,
664b5195ae42ba03b70189c6,forced_choice,274,57,"Respect for others",59,"Respect for others",false,"Social conformity",22,"Response to peer pressure",true,"Social conformity",22,"Response to peer pressure",true,"Respect for others",59,"Respect for others",false,2325,,,,,,,,,
664b5195ae42ba03b70189c6,attention_check,279,,,,,,,,,,,,,,,,,,3200,"Playing with others","Playing with others",true,,,,,,
664b5195ae42ba03b70189c6,forced_choice,275,57,"Self-awareness",76,"Self-awareness",false,"Starting projects",46,"Task initiation",true,"Starting projects",46,"Task initiation",true,"Self-awareness",76,"Self-awareness",false,6524,,,,,,,,,
664b5195ae42ba03b70189c6,forced_choice,276,57,"Social awareness",16,"Social awareness",false,"Future outlook",72,"Future outlook",false,"Social awareness",16,"Social awareness",false,"Future outlook",72,"Future outlook",false,1424,,,,,,,,,
664b5195ae42ba03b70189c6,forced_choice,277,57,"Response to criticism",39,"Learning from feedback and mistakes",true,"Following directions",5,"Following directions",false,"Following directions",5,"Following directions",false,"Response to criticism",39,"Learning from feedback and mistakes",true,1489,,,,,,,,,
664b5195ae42ba03b70189c6,forced_choice,278,57,"Future outlook",72,"Future outlook",false,"Response to criticism",39,"Learning from feedback and mistakes",true,"Future outlook",72,"Future outlook",false,"Response to criticism",39,"Learning from feedback and mistakes",true,28754,,,,,,,,,
664b5195ae42ba03b70189c6,forced_choice,279,57,"Future outlook",72,"Future outlook",false,"Respect for others",59,"Respect for others",false,"Respect for others",59,"Respect for others",false,"Future outlook",72,"Future outlook",false,1241,,,,,,,,,
664b5195ae42ba03b70189c6,forced_choice,280,57,"Following directions",5,"Following directions",false,"Psychological balance",84,"Emotional well-being",true,"Following directions",5,"Following directions",false,"Psychological balance",84,"Emotional well-being",true,2012,,,,,,,,,
664b5195ae42ba03b70189c6,forced_choice,281,57,"Response to criticism",39,"Learning from feedback and mistakes",true,"Learning new things",38,"Learning new things",false,"Learning new things",38,"Learning new things",false,"Response to criticism",39,"Learning from feedback and mistakes",true,2813,,,,,,,,,
664b5195ae42ba03b70189c6,forced_choice,282,57,"Motivation",54,"Motivation",false,"Respect for others",59,"Respect for others",false,"Motivation",54,"Motivation",false,"Respect for others",59,"Respect for others",false,2860,,,,,,,,,
664b5195ae42ba03b70189c6,forced_choice,283,57,"Asking questions",4,"Asking questions",false,"Social awareness",16,"Social awareness",false,"Social awareness",16,"Social awareness",false,"Asking questions",4,"Asking questions",false,2077,,,,,,,,,
664b5195ae42ba03b70189c6,forced_choice,284,57,"Recreation",19,"Play",true,"Accomplishing work",47,"Task completion",true,"Accomplishing work",47,"Task completion",true,"Recreation",19,"Play",true,1276,,,,,,,,,
664b5195ae42ba03b70189c6,forced_choice,285,57,"Psychological balance",84,"Emotional well-being",true,"Recognition of feelings",31,"Emotional awareness",true,"Psychological balance",84,"Emotional well-being",true,"Recognition of feelings",31,"Emotional awareness",true,3201,,,,,,,,,
664b5195ae42ba03b70189c6,forced_choice,286,57,"Strategic preparation",42,"Planning",true,"Social conformity",22,"Response to peer pressure",true,"Strategic preparation",42,"Planning",true,"Social conformity",22,"Response to peer pressure",true,59010,,,,,,,,,
664b5195ae42ba03b70189c6,forced_choice,287,57,"Relationships with teachers",11,"Relationships with teachers",false,"Motivation",54,"Motivation",false,"Motivation",54,"Motivation",false,"Relationships with teachers",11,"Relationships with teachers",false,1317,,,,,,,,,
664b5195ae42ba03b70189c6,forced_choice,288,57,"Text comprehension",52,"Reading",true,"Self-awareness",76,"Self-awareness",false,"Self-awareness",76,"Self-awareness",false,"Text comprehension",52,"Reading",true,1297,,,,,,,,,
664b5195ae42ba03b70189c6,forced_choice,289,57,"Penmanship",53,"Writing",true,"Strategic preparation",42,"Planning",true,"Strategic preparation",42,"Planning",true,"Penmanship",53,"Writing",true,3065,,,,,,,,,
664b5195ae42ba03b70189c6,forced_choice,290,57,"Student engagement",89,"Class participation",true,"Self-awareness",76,"Self-awareness",false,"Self-awareness",76,"Self-awareness",false,"Student engagement",89,"Class participation",true,57630,,,,,,,,,
664b5195ae42ba03b70189c6,forced_choice,291,57,"Student engagement",89,"Class participation",true,"Motivation",54,"Motivation",false,"Motivation",54,"Motivation",false,"Student engagement",89,"Class participation",true,1520,,,,,,,,,
664b5195ae42ba03b70189c6,forced_choice,292,57,"Motivation",54,"Motivation",false,"Personal appearance",82,"Self-care / hygiene",true,"Motivation",54,"Motivation",false,"Personal appearance",82,"Self-care / hygiene",true,1728,,,,,,,,,
664b5195ae42ba03b70189c6,forced_choice,293,57,"Accomplishing work",47,"Task completion",true,"Learning new things",38,"Learning new things",false,"Learning new things",38,"Learning new things",false,"Accomplishing work",47,"Task completion",true,9400,,,,,,,,,
664b5195ae42ba03b70189c6,forced_choice,294,57,"Response to criticism",39,"Learning from feedback and mistakes",true,"Text comprehension",52,"Reading",true,"Text comprehension",52,"Reading",true,"Response to criticism",39,"Learning from feedback and mistakes",true,4087,,,,,,,,,
664b5195ae42ba03b70189c6,forced_choice,295,57,"Motivation",54,"Motivation",false,"Accomplishing work",47,"Task completion",true,"Accomplishing work",47,"Task completion",true,"Motivation",54,"Motivation",false,3173,,,,,,,,,
664b5195ae42ba03b70189c6,forced_choice,296,57,"Penmanship",53,"Writing",true,"Managing thoughts",34,"Managing thoughts",false,"Managing thoughts",34,"Managing thoughts",false,"Penmanship",53,"Writing",true,1830,,,,,,,,,
664b5195ae42ba03b70189c6,forced_choice,297,57,"Self-awareness",76,"Self-awareness",false,"Motivation",54,"Motivation",false,"Motivation",54,"Motivation",false,"Self-awareness",76,"Self-awareness",false,2584,,,,,,,,,
664b5195ae42ba03b70189c6,forced_choice,298,57,"Social conformity",22,"Response to peer pressure",true,"Motivation",54,"Motivation",false,"Motivation",54,"Motivation",false,"Social conformity",22,"Response to peer pressure",true,2115,,,,,,,,,
664b5195ae42ba03b70189c6,forced_choice,299,57,"Social conformity",22,"Response to peer pressure",true,"Reasoning ability",35,"Reasoning ability",false,"Reasoning ability",35,"Reasoning ability",false,"Social conformity",22,"Response to peer pressure",true,4915,,,,,,,,,
664b5195ae42ba03b70189c6,forced_choice,300,57,"Following directions",5,"Following directions",false,"Asking questions",4,"Asking questions",false,"Following directions",5,"Following directions",false,"Asking questions",4,"Asking questions",false,2253,,,,,,,,,
664b5195ae42ba03b70189c6,forced_choice,301,57,"Accomplishing work",47,"Task completion",true,"Social awareness",16,"Social awareness",false,"Accomplishing work",47,"Task completion",true,"Social awareness",16,"Social awareness",false,1277,,,,,,,,,
664b5195ae42ba03b70189c6,forced_choice,302,57,"Asking questions",4,"Asking questions",false,"Recreation",19,"Play",true,"Asking questions",4,"Asking questions",false,"Recreation",19,"Play",true,1499,,,,,,,,,
664b5195ae42ba03b70189c6,forced_choice,303,57,"Future outlook",72,"Future outlook",false,"Managing thoughts",34,"Managing thoughts",false,"Future outlook",72,"Future outlook",false,"Managing thoughts",34,"Managing thoughts",false,11522,,,,,,,,,
664b5195ae42ba03b70189c6,forced_choice,304,57,"Learning new things",38,"Learning new things",false,"Relationships with teachers",11,"Relationships with teachers",false,"Learning new things",38,"Learning new things",false,"Relationships with teachers",11,"Relationships with teachers",false,5514,,,,,,,,,
664b5195ae42ba03b70189c6,forced_choice,305,57,"Strategic preparation",42,"Planning",true,"Recreation",19,"Play",true,"Strategic preparation",42,"Planning",true,"Recreation",19,"Play",true,236,,,,,,,,,
664b5195ae42ba03b70189c6,forced_choice,306,57,"Respect for others",59,"Respect for others",false,"Recognition of feelings",31,"Emotional awareness",true,"Recognition of feelings",31,"Emotional awareness",true,"Respect for others",59,"Respect for others",false,8045,,,,,,,,,
664b5195ae42ba03b70189c6,forced_choice,307,57,"Text comprehension",52,"Reading",true,"Future outlook",72,"Future outlook",false,"Future outlook",72,"Future outlook",false,"Text comprehension",52,"Reading",true,5798,,,,,,,,,
664b5195ae42ba03b70189c6,forced_choice,308,57,"Requesting assistance",3,"Seeking help",true,"Social conformity",22,"Response to peer pressure",true,"Social conformity",22,"Response to peer pressure",true,"Requesting assistance",3,"Seeking help",true,3403,,,,,,,,,
664b5195ae42ba03b70189c6,forced_choice,309,57,"Social conformity",22,"Response to peer pressure",true,"Following directions",5,"Following directions",false,"Social conformity",22,"Response to peer pressure",true,"Following directions",5,"Following directions",false,7639,,,,,,,,,
664b5195ae42ba03b70189c6,forced_choice,310,57,"Reasoning ability",35,"Reasoning ability",false,"Personal appearance",82,"Self-care / hygiene",true,"Reasoning ability",35,"Reasoning ability",false,"Personal appearance",82,"Self-care / hygiene",true,2253,,,,,,,,,
664b5195ae42ba03b70189c6,forced_choice,311,57,"Starting projects",46,"Task initiation",true,"Penmanship",53,"Writing",true,"Starting projects",46,"Task initiation",true,"Penmanship",53,"Writing",true,1323,,,,,,,,,
664b5195ae42ba03b70189c6,forced_choice,312,57,"Showing feelings",30,"Emotional expression",true,"Reasoning ability",35,"Reasoning ability",false,"Reasoning ability",35,"Reasoning ability",false,"Showing feelings",30,"Emotional expression",true,1324,,,,,,,,,
664b5195ae42ba03b70189c6,forced_choice,313,57,"Psychological balance",84,"Emotional well-being",true,"Motivation",54,"Motivation",false,"Motivation",54,"Motivation",false,"Psychological balance",84,"Emotional well-being",true,1351,,,,,,,,,
664b5195ae42ba03b70189c6,forced_choice,314,57,"Recognition of feelings",31,"Emotional awareness",true,"Penmanship",53,"Writing",true,"Recognition of feelings",31,"Emotional awareness",true,"Penmanship",53,"Writing",true,1074,,,,,,,,,
664b5195ae42ba03b70189c6,forced_choice,315,57,"Asking questions",4,"Asking questions",false,"Self-awareness",76,"Self-awareness",false,"Asking questions",4,"Asking questions",false,"Self-awareness",76,"Self-awareness",false,5992,,,,,,,,,
664b5195ae42ba03b70189c6,forced_choice,316,57,"Accomplishing work",47,"Task completion",true,"Managing thoughts",34,"Managing thoughts",false,"Accomplishing work",47,"Task completion",true,"Managing thoughts",34,"Managing thoughts",false,1480,,,,,,,,,
664b5195ae42ba03b70189c6,forced_choice,317,57,"Reasoning ability",35,"Reasoning ability",false,"Learning new things",38,"Learning new things",false,"Reasoning ability",35,"Reasoning ability",false,"Learning new things",38,"Learning new things",false,9782,,,,,,,,,
664b5195ae42ba03b70189c6,forced_choice,318,57,"Showing feelings",30,"Emotional expression",true,"Politeness",61,"Politeness",false,"Showing feelings",30,"Emotional expression",true,"Politeness",61,"Politeness",false,3140,,,,,,,,,
664b5195ae42ba03b70189c6,forced_choice,319,57,"Social conformity",22,"Response to peer pressure",true,"Asking questions",4,"Asking questions",false,"Social conformity",22,"Response to peer pressure",true,"Asking questions",4,"Asking questions",false,1397,,,,,,,,,
664b5195ae42ba03b70189c6,forced_choice,320,57,"Politeness",61,"Politeness",false,"Psychological balance",84,"Emotional well-being",true,"Politeness",61,"Politeness",false,"Psychological balance",84,"Emotional well-being",true,3717,,,,,,,,,
664b5195ae42ba03b70189c6,forced_choice,321,57,"Requesting assistance",3,"Seeking help",true,"Reasoning ability",35,"Reasoning ability",false,"Reasoning ability",35,"Reasoning ability",false,"Requesting assistance",3,"Seeking help",true,3350,,,,,,,,,
664b5195ae42ba03b70189c6,forced_choice,322,57,"Following directions",5,"Following directions",false,"Relationships with teachers",11,"Relationships with teachers",false,"Following directions",5,"Following directions",false,"Relationships with teachers",11,"Relationships with teachers",false,4047,,,,,,,,,
664b5195ae42ba03b70189c6,forced_choice,323,57,"Motivation",54,"Motivation",false,"Text comprehension",52,"Reading",true,"Motivation",54,"Motivation",false,"Text comprehension",52,"Reading",true,1140,,,,,,,,,
664b5195ae42ba03b70189c6,forced_choice,324,57,"Personal appearance",82,"Self-care / hygiene",true,"Response to criticism",39,"Learning from feedback and mistakes",true,"Personal appearance",82,"Self-care / hygiene",true,"Response to criticism",39,"Learning from feedback and mistakes",true,1692,,,,,,,,,
