user_id,task,trial_index,subset_index,left_term,left_construct_id,left_canonical,left_is_synonym,right_term,right_construct_id,right_canonical,right_is_synonym,chosen_term,chosen_construct_id,chosen_canonical,chosen_is_synonym,unchosen_term,unchosen_construct_id,unchosen_canonical,unchosen_is_synonym,response_time,correct_word,chosen_word,passed,grade_levels,special_needs,school_type,experience,class_size,country
5f1bea7d46be2a4101756238,demographics,,,,,,,,,,,,,,,,,,,,,,,"primary","no","public","6-10","<15","United Kingdom"
5f1bea7d46be2a4101756238,forced_choice,0,381,"Educational outcomes",88,"Academic performance",true,"Managing emotions",29,"Managing emotions",false,"Educational outcomes",88,"Academic performance",true,"Managing emotions",29,"Managing emotions",false,9274,,,,,,,,,
5f1bea7d46be2a4101756238,forced_choice,1,381,"Emotional state",32,"Mood",true,"Motivation",54,"Motivation",false,"Emotional state",32,"Mood",true,"Motivation",54,"Motivation",false,3351,,,,,,,,,
5f1bea7d46be2a4101756238,forced_choice,2,381,"Responsibility",66,"Responsibility",false,"Educational outcomes",88,"Academic performance",true,"Educational outcomes",88,"Academic performance",true,"Responsibility",66,"Responsibility",false,3351,,,,,,,,,
5f1bea7d46be2a4101756238,forced_choice,3,381,"Willpower",75,"Self-control",true,"Requesting information",4,"Asking questions",true,"Requesting information",4,"Asking questions",true,"Willpower",75,"Self-control",true,7151,,,,,,,,,
5f1bea7d46be2a4101756238,forced_choice,4,381,"Cognitive control",34,"Managing thoughts",true,"Assisting others",63,"Helpfulness",true,"Cognitive control",34,"Managing thoughts",true,"Assisting others",63,"Helpfulness",true,4404,,,,,,,,,
5f1bea7d46be2a4101756238,forced_choice,5,381,"Responsibility",66,"Responsibility",false,"Recalling information",41,"Memory",true,"Responsibility",66,"Responsibility",false,"Recalling information",41,"Memory",true,3342,,,,,,,,,
5f1bea7d46be2a4101756238,forced_choice,6,381,"Handling disagreements",24,"Managing conflict",true,"Managing emotions",29,"Managing emotions",false,"Managing emotions",29,"Managing emotions",false,"Handling disagreements",24,"Managing conflict",true,2856,,,,,,,,,
5f1bea7d46be2a4101756238,forced_choice,7,381,"Messaging",1,"Expressive communication",true,"Assisting others",63,"Helpfulness",true,"Assisting others",63,"Helpfulness",true,"Messaging",1,"Expressive communication",true,4491,,,,,,,,,
5f1bea7d46be2a4101756238,forced_choice,8,381,"Cognitive control",34,"Managing thoughts",true,"Social conformity",22,"Response to peer pressure",true,"Cognitive control",34,"Managing thoughts",true,"Social conformity",22,"Response to peer pressure",true,1420,,,,,,,,,
5f1bea7d46be2a4101756238,forced_choice,9,381,"Bullying",23,"Bullying",false,"Exhaustion",85,"Sleep and fatigue",true,"Bullying",23,"Bullying",false,"Exhaustion",85,"Sleep and fatigue",true,8286,,,,,,,,,
5f1bea7d46be2a4101756238,forced_choice,10,381,"Managing emotions",29,"Managing emotions",false,"Starting projects",46,"Task initiation",true,"Managing emotions",29,"Managing emotions",false,"Starting projects",46,"Task initiation",true,2037,,,,,,,,,
5f1bea7d46be2a4101756238,forced_choice,11,381,"Handling disagreements",24,"Managing conflict",true,"Activity level",73,"Activity level",false,"Handling disagreements",24,"Managing conflict",true,"Activity level",73,"Activity level",false,1690,,,,,,,,,
5f1bea7d46be2a4101756238,forced_choice,12,381,"Assisting others",63,"Helpfulness",true,"Requesting information",4,"Asking questions",true,"Assisting others",63,"Helpfulness",true,"Requesting information",4,"Asking questions",true,2081,,,,,,,,,
5f1bea7d46be2a4101756238,forced_choice,13,381,"Assisting others",63,"Helpfulness",true,"Social connections",9,"Relationships with peers",true,"Assisting others",63,"Helpfulness",true,"Social connections",9,"Relationships with peers",true,1669,,,,,,,,,
5f1bea7d46be2a4101756238,forced_choice,14,381,"Recovery capacity",28,"Resilience",true,"Cognitive control",34,"Managing thoughts",true,"Cognitive control",34,"Managing thoughts",true,"Recovery capacity",28,"Resilience",true,2772,,,,,,,,,
5f1bea7d46be2a4101756238,forced_choice,15,381,"Starting projects",46,"Task initiation",true,"Willpower",75,"Self-control",true,"Starting projects",46,"Task initiation",true,"Willpower",75,"Self-control",true,2295,,,,,,,,,
5f1bea7d46be2a4101756238,forced_choice,16,381,"Personal security",21,"Sense of safety",true,"Messaging",1,"Expressive communication",true,"Personal security",21,"Sense of safety",true,"Messaging",1,"Expressive communication",true,3304,,,,,,,,,
5f1bea7d46be2a4101756238,forced_choice,17,381,"Organization",43,"Organization",false,"Social connections",9,"Relationships with peers",true,"Organization",43,"Organization",false,"Social connections",9,"Relationships with peers",true,4570,,,,,,,,,
5f1bea7d46be2a4101756238,forced_choice,18,381,"Social connections",9,"Relationships with peers",true,"Exhaustion",85,"Sleep and fatigue",true,"Social connections",9,"Relationships with peers",true,"Exhaustion",85,"Sleep and fatigue",true,1620,,,,,,,,,
5f1bea7d46be2a4101756238,forced_choice,19,381,"Student engagement",89,"Class participation",true,"Social conformity",22,"Response to peer pressure",true,"Student engagement",89,"Class participation",true,"Social conformity",22,"Response to peer pressure",true,1484,,,,,,,,,
5f1bea7d46be2a4101756238,forced_choice,20,381,"Responsibility",66,"Responsibility",false,"Bullying",23,"Bullying",false,"Bullying",23,"Bullying",false,"Responsibility",66,"Responsibility",false,1839,,,,,,,,,
5f1bea7d46be2a4101756238,forced_choice,21,381,"Social connections",9,"Relationships with peers",true,"Bullying",23,"Bullying",false,"Social connections",9,"Relationships with peers",true,"Bullying",23,"Bullying",false,1659,,,,,,,,,
5f1bea7d46be2a4101756238,forced_choice,22,381,"Requesting information",4,"Asking questions",true,"Exhaustion",85,"Sleep and fatigue",true,"Requesting information",4,"Asking questions",true,"Exhaustion",85,"Sleep and fatigue",true,3555,,,,,,,,,
5f1bea7d46be2a4101756238,forced_choice,23,381,"Skill development",38,"Learning new things",true,"Assisting others",63,"Helpfulness",true,"Skill development",38,"Learning new things",true,"Assisting others",63,"Helpfulness",true,1986,,,,,,,,,
5f1bea7d46be2a4101756238,forced_choice,24,381,"Exhaustion",85,"Sleep and fatigue",true,"Emotional state",32,"Mood",true,"Emotional state",32,"Mood",true,"Exhaustion",85,"Sleep and fatigue",true,1210,,,,,,,,,
5f1bea7d46be2a4101756238,forced_choice,25,381,"Exhaustion",85,"Sleep and fatigue",true,"Activity level",73,"Activity level",false,"Activity level",73,"Activity level",false,"Exhaustion",85,"Sleep and fatigue",true,2298,,,,,,,,,
5f1bea7d46be2a4101756238,forced_choice,26,381,"Emotional state",32,"Mood",true,"Social connections",9,"Relationships with peers",true,"Emotional state",32,"Mood",true,"Social connections",9,"Relationships with peers",true,1780,,,,,,,,,
5f1bea7d46be2a4101756238,forced_choice,27,381,"Starting projects",46,"Task initiation",true,"Recovery capacity",28,"Resilience",true,"Starting projects",46,"Task initiation",true,"Recovery capacity",28,"Resilience",true,1918,,,,,,,,,
5f1bea7d46be2a4101756238,forced_choice,28,381,"Recovery capacity",28,"Resilience",true,"Exhaustion",85,"Sleep and fatigue",true,"Recovery capacity",28,"Resilience",true,"Exhaustion",85,"Sleep and fatigue",true,1417,,,,,,,,,
5f1bea7d46be2a4101756238,forced_choice,29,381,"Use of environment",27,"Resourcefulness",true,"Organization",43,"Organization",false,"Use of environment",27,"Resourcefulness",true,"Organization",43,"Organization",false,2612,,,,,,,,,
5f1bea7d46be2a4101756238,forced_choice,30,381,"Activity level",73,"Activity level",false,"Cognitive control",34,"Managing thoughts",true,"Cognitive control",34,"Managing thoughts",true,"Activity level",73,"Activity level",false,1784,,,,,,,,,
5f1bea7d46be2a4101756238,forced_choice,31,381,"Emotional state",32,"Mood",true,"Starting projects",46,"Task initiation",true,"Emotional state",32,"Mood",true,"Starting projects",46,"Task initiation",true,1307,,,,,,,,,
5f1bea7d46be2a4101756238,forced_choice,32,381,"Activity level",73,"Activity level",false,"Personal security",21,"Sense of safety",true,"Activity level",73,"Activity level",false,"Personal security",21,"Sense of safety",true,1686,,,,,,,,,
5f1bea7d46be2a4101756238,forced_choice,33,381,"Responsibility",66,"Responsibility",false,"Personal security",21,"Sense of safety",true,"Responsibility",66,"Responsibility",false,"Personal security",21,"Sense of safety",true,1938,,,,,,,,,
5f1bea7d46be2a4101756238,forced_choice,34,381,"Emotional state",32,"Mood",true,"Handling disagreements",24,"Managing conflict",true,"Emotional state",32,"Mood",true,"Handling disagreements",24,"Managing conflict",true,1888,,,,,,,,,
5f1bea7d46be2a4101756238,forced_choice,35,381,"Personal appearance",82,"Self-care / hygiene",true,"Skill development",38,"Learning new things",true,"Skill development",38,"Learning new things",true,"Personal appearance",82,"Self-care / hygiene",true,2084,,,,,,,,,
5f1bea7d46be2a4101756238,forced_choice,36,381,"Emotional state",32,"Mood",true,"Messaging",1,"Expressive communication",true,"Emotional state",32,"Mood",true,"Messaging",1,"Expressive communication",true,1083,,,,,,,,,
5f1bea7d46be2a4101756238,forced_choice,37,381,"Skill development",38,"Learning new things",true,"Social connections",9,"Relationships with peers",true,"Skill development",38,"Learning new things",true,"Social connections",9,"Relationships with peers",true,1356,,,,,,,,,
5f1bea7d46be2a4101756238,forced_choice,38,381,"Handling disagreements",24,"Managing conflict",true,"Personal security",21,"Sense of safety",true,"Handling disagreements",24,"Managing conflict",true,"Personal security",21,"Sense of safety",true,3331,,,,,,,,,
5f1bea7d46be2a4101756238,forced_choice,39,381,"Starting projects",46,"Task initiation",true,"Student engagement",89,"Class participation",true,"Student engagement",89,"Class participation",true,"Starting projects",46,"Task initiation",true,1453,,,,,,,,,
5f1bea7d46be2a4101756238,forced_choice,40,381,"Recalling information",41,"Memory",true,"Personal security",21,"Sense of safety",true,"Recalling information",41,"Memory",true,"Personal security",21,"Sense of safety",true,1420,,,,,,,,,
5f1bea7d46be2a4101756238,forced_choice,41,381,"Messaging",1,"Expressive communication",true,"Use of environment",27,"Resourcefulness",true,"Use of environment",27,"Resourcefulness",true,"Messaging",1,"Expressive communication",true,927,,,,,,,,,
5f1bea7d46be2a4101756238,forced_choice,42,381,"Bullying",23,"Bullying",false,"Schedule planning",44,"Time management",true,"Bullying",23,"Bullying",false,"Schedule planning",44,"Time management",true,1584,,,,,,,,,
5f1bea7d46be2a4101756238,forced_choice,43,381,"Educational outcomes",88,"Academic performance",true,"Recalling information",41,"Memory",true,"Educational outcomes",88,"Academic performance",true,"Recalling information",41,"Memory",true,1414,,,,,,,,,
5f1bea7d46be2a4101756238,forced_choice,44,381,"Requesting information",4,"Asking questions",true,"Schedule planning",44,"Time management",true,"Requesting information",4,"Asking questions",true,"Schedule planning",44,"Time management",true,2124,,,,,,,,,
5f1bea7d46be2a4101756238,forced_choice,45,381,"Social conformity",22,"Response to peer pressure",true,"Social connections",9,"Relationships with peers",true,"Social connections",9,"Relationships with peers",true,"Social conformity",22,"Response to peer pressure",true,1437,,,,,,,,,
5f1bea7d46be2a4101756238,forced_choice,46,381,"Recovery capacity",28,"Resilience",true,"Student engagement",89,"Class participation",true,"Student engagement",89,"Class participation",true,"Recovery capacity",28,"Resilience",true,3346,,,,,,,,,
5f1bea7d46be2a4101756238,forced_choice,47,381,"Personal appearance",82,"Self-care / hygiene",true,"Cognitive control",34,"Managing thoughts",true,"Cognitive control",34,"Managing thoughts",true,"Personal appearance",82,"Self-care / hygiene",true,1259,,,,,,,,,
5f1bea7d46be2a4101756238,forced_choice,48,381,"Recovery capacity",28,"Resilience",true,"Social conformity",22,"Response to peer pressure",true,"Recovery capacity",28,"Resilience",true,"Social conformity",22,"Response to peer pressure",true,1426,,,,,,,,,
5f1bea7d46be2a4101756238,forced_choice,49,381,"Recalling information",41,"Memory",true,"Cognitive control",34,"Managing thoughts",true,"Cognitive control",34,"Managing thoughts",true,"Recalling information",41,"Memory",true,1733,,,,,,,,,
5f1bea7d46be2a4101756238,forced_choice,50,381,"Activity level",73,"Activity level",false,"Recalling information",41,"Memory",true,"Activity level",73,"Activity level",false,"Recalling information",41,"Memory",true,1389,,,,,,,,,
5f1bea7d46be2a4101756238,forced_choice,51,381,"Emotional state",32,"Mood",true,"Cognitive control",34,"Managing thoughts",true,"Emotional state",32,"Mood",true,"Cognitive control",34,"Managing thoughts",true,2286,,,,,,,,,
5f1bea7d46be2a4101756238,forced_choice,52,381,"Handling disagreements",24,"Managing conflict",true,"Educational outcomes",88,"Academic performance",true,"Educational outcomes",88,"Academic performance",true,"Handling disagreements",24,"Managing conflict",true,1485,,,,,,,,,
5f1bea7d46be2a4101756238,forced_choice,53,381,"Personal appearance",82,"Self-care / hygiene",true,"Student engagement",89,"Class participation",true,"Student engagement",89,"Class participation",true,"Personal appearance",82,"Self-care / hygiene",true,1734,,,,,,,,,
5f1bea7d46be2a4101756238,forced_choice,54,381,"Use of environment",27,"Resourcefulness",true,"Activity level",73,"Activity level",false,"Activity level",73,"Activity level",false,"Use of environment",27,"Resourcefulness",true,1855,,,,,,,,,
5f1bea7d46be2a4101756238,attention_check,55,,,,,,,,,,,,,,,,,,2014,"Playing with others","Playing with others",true,,,,,,
5f1bea7d46be2a4101756238,forced_choice,55,381,"Student engagement",89,"Class participation",true,"Managing emotions",29,"Managing emotions",false,"Student engagement",89,"Class participation",true,"Managing emotions",29,"Managing emotions",false,2048,,,,,,,,,
5f1bea7d46be2a4101756238,forced_choice,56,381,"Educational outcomes",88,"Academic performance",true,"Willpower",75,"Self-control",true,"Educational outcomes",88,"Academic performance",true,"Willpower",75,"Self-control",true,1970,,,,,,,,,
5f1bea7d46be2a4101756238,forced_choice,57,381,"Willpower",75,"Self-control",true,"Organization",43,"Organization",false,"Willpower",75,"Self-control",true,"Organization",43,"Organization",false,1359,,,,,,,,,
5f1bea7d46be2a4101756238,forced_choice,58,381,"Bullying",23,"Bullying",false,"Emotional state",32,"Mood",true,"Emotional state",32,"Mood",true,"Bullying",23,"Bullying",false,1883,,,,,,,,,
5f1bea7d46be2a4101756238,forced_choice,59,381,"Activity level",73,"Activity level",false,"Responsibility",66,"Responsibility",false,"Activity level",73,"Activity level",false,"Responsibility",66,"Responsibility",false,942,,,,,,,,,
5f1bea7d46be2a4101756238,forced_choice,60,381,"Motivation",54,"Motivation",false,"Recovery capacity",28,"Resilience",true,"Motivation",54,"Motivation",false,"Recovery capacity",28,"Resilience",true,1504,,,,,,,,,
5f1bea7d46be2a4101756238,forced_choice,61,381,"Social connections",9,"Relationships with peers",true,"Personal security",21,"Sense of safety",true,"Social connections",9,"Relationships with peers",true,"Personal security",21,"Sense of safety",true,1169,,,,,,,,,
5f1bea7d46be2a4101756238,forced_choice,62,381,"Responsibility",66,"Responsibility",false,"Social conformity",22,"Response to peer pressure",true,"Responsibility",66,"Responsibility",false,"Social conformity",22,"Response to peer pressure",true,2962,,,,,,,,,
5f1bea7d46be2a4101756238,forced_choice,63,381,"Willpower",75,"Self-control",true,"Recovery capacity",28,"Resilience",true,"Recovery capacity",28,"Resilience",true,"Willpower",75,"Self-control",true,1656,,,,,,,,,
5f1bea7d46be2a4101756238,forced_choice,64,381,"Personal security",21,"Sense of safety",true,"Schedule planning",44,"Time management",true,"Schedule planning",44,"Time management",true,"Personal security",21,"Sense of safety",true,1106,,,,,,,,,
5f1bea7d46be2a4101756238,forced_choice,65,381,"Exhaustion",85,"Sleep and fatigue",true,"Personal security",21,"Sense of safety",true,"Personal security",21,"Sense of safety",true,"Exhaustion",85,"Sleep and fatigue",true,1712,,,,,,,,,
5f1bea7d46be2a4101756238,forced_choice,66,381,"Willpower",75,"Self-control",true,"Handling disagreements",24,"Managing conflict",true,"Willpower",75,"Self-control",true,"Handling disagreements",24,"Managing conflict",true,1485,,,,,,,,,
5f1bea7d46be2a4101756238,forced_choice,67,381,"Social conformity",22,"Response to peer pressure",true,"Use of environment",27,"Resourcefulness",true,"Use of environment",27,"Resourcefulness",true,"Social conformity",22,"Response to peer pressure",true,1380,,,,,,,,,
5f1bea7d46be2a4101756238,forced_choice,68,381,"Educational outcomes",88,"Academic performance",true,"Bullying",23,"Bullying",false,"Educational outcomes",88,"Academic performance",true,"Bullying",23,"Bullying",false,1285,,,,,,,,,
5f1bea7d46be2a4101756238,forced_choice,69,381,"Recalling information",41,"Memory",true,"Exhaustion",85,"Sleep and fatigue",true,"Recalling information",41,"Memory",true,"Exhaustion",85,"Sleep and fatigue",true,1179,,,,,,,,,
5f1bea7d46be2a4101756238,forced_choice,70,381,"Requesting information",4,"Asking questions",true,"Personal security",21,"Sense of safety",true,"Requesting information",4,"Asking questions",true,"Personal security",21,"Sense of safety",true,1297,,,,,,,,,
5f1bea7d46be2a4101756238,forced_choice,71,381,"Exhaustion",85,"Sleep and fatigue",true,"Responsibility",66,"Responsibility",false,"Responsibility",66,"Responsibility",false,"Exhaustion",85,"Sleep and fatigue",true,1470,,,,,,,,,
5f1bea7d46be2a4101756238,forced_choice,72,381,"Willpower",75,"Self-control",true,"Responsibility",66,"Responsibility",false,"Willpower",75,"Self-control",true,"Responsibility",66,"Responsibility",false,1232,,,,,,,,,
5f1bea7d46be2a4101756238,forced_choice,73,381,"Motivation",54,"Motivation",false,"Student engagement",89,"Class participation",true,"Student engagement",89,"Class participation",true,"Motivation",54,"Motivation",false,1208,,,,,,,,,
5f1bea7d46be2a4101756238,forced_choice,74,381,"Educational outcomes",88,"Academic performance",true,"Activity level",73,"Activity level",false,"Activity level",73,"Activity level",false,"Educational outcomes",88,"Academic performance",true,2439,,,,,,,,,
5f1bea7d46be2a4101756238,forced_choice,75,381,"Emotional state",32,"Mood",true,"Organization",43,"Organization",false,"Emotional state",32,"Mood",true,"Organization",43,"Organization",false,1531,,,,,,,,,
5f1bea7d46be2a4101756238,forced_choice,76,381,"Skill development",38,"Learning new things",true,"Managing emotions",29,"Managing emotions",false,"Skill development",38,"Learning new things",true,"Managing emotions",29,"Managing emotions",false,1229,,,,,,,,,
5f1bea7d46be2a4101756238,forced_choice,77,381,"Schedule planning",44,"Time management",true,"Emotional state",32,"Mood",true,"Emotional state",32,"Mood",true,"Schedule planning",44,"Time management",true,1134,,,,,,,,,
5f1bea7d46be2a4101756238,forced_choice,78,381,"Use of environment",27,"Resourcefulness",true,"Emotional state",32,"Mood",true,"Emotional state",32,"Mood",true,"Use of environment",27,"Resourcefulness",true,1761,,,,,,,,,
5f1bea7d46be2a4101756238,forced_choice,79,381,"Starting projects",46,"Task initiation",true,"Responsibility",66,"Responsibility",false,"Starting projects",46,"Task initiation",true,"Responsibility",66,"Responsibility",false,1721,,,,,,,,,
5f1bea7d46be2a4101756238,forced_choice,80,381,"Recalling information",41,"Memory",true,"Emotional state",32,"Mood",true,"Recalling information",41,"Memory",true,"Emotional state",32,"Mood",true,1323,,,,,,,,,
5f1bea7d46be2a4101756238,forced_choice,81,381,"Messaging",1,"Expressive communication",true,"Handling disagreements",24,"Managing conflict",true,"Handling disagreements",24,"Managing conflict",true,"Messaging",1,"Expressive communication",true,1378,,,,,,,,,
5f1bea7d46be2a4101756238,forced_choice,82,381,"Handling disagreements",24,"Managing conflict",true,"Bullying",23,"Bullying",false,"Handling disagreements",24,"Managing conflict",true,"Bullying",23,"Bullying",false,2831,,,,,,,,,
5f1bea7d46be2a4101756238,forced_choice,83,381,"Student engagement",89,"Class participation",true,"Responsibility",66,"Responsibility",false,"Student engagement",89,"Class participation",true,"Responsibility",66,"Responsibility",false,1665,,,,,,,,,
5f1bea7d46be2a4101756238,forced_choice,84,381,"Handling disagreements",24,"Managing conflict",true,"Recalling information",41,"Memory",true,"Recalling information",41,"Memory",true,"Handling disagreements",24,"Managing conflict",true,1379,,,,,,,,,
5f1bea7d46be2a4101756238,forced_choice,85,381,"Schedule planning",44,"Time management",true,"Managing emotions",29,"Managing emotions",false,"Managing emotions",29,"Managing emotions",false,"Schedule planning",44,"Time management",true,1275,,,,,,,,,
5f1bea7d46be2a4101756238,forced_choice,86,381,"Schedule planning",44,"Time management",true,"Cognitive control",34,"Managing thoughts",true,"Cognitive control",34,"Managing thoughts",true,"Schedule planning",44,"Time management",true,2340,,,,,,,,,
5f1bea7d46be2a4101756238,forced_choice,87,381,"Requesting information",4,"Asking questions",true,"Social conformity",22,"Response to peer pressure",true,"Requesting information",4,"Asking questions",true,"Social conformity",22,"Response to peer pressure",true,1334,,,,,,,,,
5f1bea7d46be2a4101756238,forced_choice,88,381,"Recalling information",41,"Memory",true,"Starting projects",46,"Task initiation",true,"Recalling information",41,"Memory",true,"Starting projects",46,"Task initiation",true,1184,,,,,,,,,
5f1bea7d46be2a4101756238,forced_choice,89,381,"Responsibility",66,"Responsibility",false,"Requesting information",4,"Asking questions",true,"Requesting information",4,"Asking questions",true,"Responsibility",66,"Responsibility",false,1951,,,,,,,,,
5f1bea7d46be2a4101756238,forced_choice,90,381,"Requesting information",4,"Asking questions",true,"Educational outcomes",88,"Academic performance",true,"Educational outcomes",88,"Academic performance",true,"Requesting information",4,"Asking questions",true,1423,,,,,,,,,
5f1bea7d46be2a4101756238,forced_choice,91,381,"Social connections",9,"Relationships with peers",true,"Recovery capacity",28,"Resilience",true,"Recovery capacity",28,"Resilience",true,"Social connections",9,"Relationships with peers",true,2311,,,,,,,,,
5f1bea7d46be2a4101756238,forced_choice,92,381,"Starting projects",46,"Task initiation",true,"Use of environment",27,"Resourcefulness",true,"Use of environment",27,"Resourcefulness",true,"Starting projects",46,"Task initiation",true,1166,,,,,,,,,
5f1bea7d46be2a4101756238,forced_choice,93,381,"Use of environment",27,"Resourcefulness",true,"Recalling information",41,"Memory",true,"Use of environment",27,"Resourcefulness",true,"Recalling information",41,"Memory",true,1394,,,,,,,,,
5f1bea7d46be2a4101756238,forced_choice,94,381,"Exhaustion",85,"Sleep and fatigue",true,"Skill development",38,"Learning new things",true,"Skill development",38,"Learning new things",true,"Exhaustion",85,"Sleep and fatigue",true,1273,,,,,,,,,
5f1bea7d46be2a4101756238,forced_choice,95,381,"Exhaustion",85,"Sleep and fatigue",true,"Social conformity",22,"Response to peer pressure",true,"Exhaustion",85,"Sleep and fatigue",true,"Social conformity",22,"Response to peer pressure",true,2224,,,,,,,,,
5f1bea7d46be2a4101756238,forced_choice,96,381,"Student engagement",89,"Class participation",true,"Emotional state",32,"Mood",true,"Emotional state",32,"Mood",true,"Student engagement",89,"Class participation",true,1928,,,,,,,,,
5f1bea7d46be2a4101756238,forced_choice,97,381,"Personal security",21,"Sense of safety",true,"Cognitive control",34,"Managing thoughts",true,"Cognitive control",34,"Managing thoughts",true,"Personal security",21,"Sense of safety",true,1292,,,,,,,,,
5f1bea7d46be2a4101756238,forced_choice,98,381,"Assisting others",63,"Helpfulness",true,"Starting projects",46,"Task initiation",true,"Starting projects",46,"Task initiation",true,"Assisting others",63,"Helpfulness",true,8726,,,,,,,,,
5f1bea7d46be2a4101756238,forced_choice,99,381,"Social conformity",22,"Response to peer pressure",true,"Willpower",75,"Self-control",true,"Willpower",75,"Self-control",true,"Social conformity",22,"Response to peer pressure",true,1007,,,,,,,,,
5f1bea7d46be2a4101756238,forced_choice,100,381,"Educational outcomes",88,"Academic performance",true,"Organization",43,"Organization",false,"Educational outcomes",88,"Academic performance",true,"Organization",43,"Organization",false,1520,,,,,,,,,
5f1bea7d46be2a4101756238,forced_choice,101,381,"Messaging",1,"Expressive communication",true,"Activity level",73,"Activity level",false,"Activity level",73,"Activity level",false,"Messaging",1,"Expressive communication",true,908,,,,,,,,,
5f1bea7d46be2a4101756238,forced_choice,102,381,"Social conformity",22,"Response to peer pressure",true,"Educational outcomes",88,"Academic performance",true,"Educational outcomes",88,"Academic performance",true,"Social conformity",22,"Response to peer pressure",true,1530,,,,,,,,,
5f1bea7d46be2a4101756238,forced_choice,103,381,"Student engagement",89,"Class participation",true,"Use of environment",27,"Resourcefulness",true,"Student engagement",89,"Class participation",true,"Use of environment",27,"Resourcefulness",true,1180,,,,,,,,,
5f1bea7d46be2a4101756238,forced_choice,104,381,"Skill development",38,"Learning new things",true,"Schedule planning",44,"Time management",true,"Skill development",38,"Learning new things",true,"Schedule planning",44,"Time management",true,1637,,,,,,,,,
5f1bea7d46be2a4101756238,forced_choice,105,381,"Schedule planning",44,"Time management",true,"Motivation",54,"Motivation",false,"Motivation",54,"Motivation",false,"Schedule planning",44,"Time management",true,979,,,,,,,,,
5f1bea7d46be2a4101756238,forced_choice,106,381,"Motivation",54,"Motivation",false,"Cognitive control",34,"Managing thoughts",true,"Cognitive control",34,"Managing thoughts",true,"Motivation",54,"Motivation",false,2080,,,,,,,,,
5f1bea7d46be2a4101756238,forced_choice,107,381,"Requesting information",4,"Asking questions",true,"Activity level",73,"Activity level",false,"Activity level",73,"Activity level",false,"Requesting information",4,"Asking questions",true,1458,,,,,,,,,
5f1bea7d46be2a4101756238,forced_choice,108,381,"Handling disagreements",24,"Managing conflict",true,"Responsibility",66,"Responsibility",false,"Handling disagreements",24,"Managing conflict",true,"Responsibility",66,"Responsibility",false,2113,,,,,,,,,
5f1bea7d46be2a4101756238,forced_choice,109,381,"Schedule planning",44,"Time management",true,"Starting projects",46,"Task initiation",true,"Starting projects",46,"Task initiation",true,"Schedule planning",44,"Time management",true,1379,,,,,,,,,
5f1bea7d46be2a4101756238,attention_check,111,,,,,,,,,,,,,,,,,,1386,"Managing emotions","Managing emotions",true,,,,,,
5f1bea7d46be2a4101756238,forced_choice,110,381,"Student engagement",89,"Class participation",true,"Messaging",1,"Expressive communication",true,"Student engagement",89,"Class participation",true,"Messaging",1,"Expressive communication",true,9007,,,,,,,,,
5f1bea7d46be2a4101756238,forced_choice,111,381,"Starting projects",46,"Task initiation",true,"Cognitive control",34,"Managing thoughts",true,"Cognitive control",34,"Managing thoughts",true,"Starting projects",46,"Task initiation",true,3038,,,,,,,,,
5f1bea7d46be2a4101756238,forced_choice,112,381,"Responsibility",66,"Responsibility",false,"Recovery capacity",28,"Resilience",true,"Recovery capacity",28,"Resilience",true,"Responsibility",66,"Responsibility",false,2906,,,,,,,,,
5f1bea7d46be2a4101756238,forced_choice,113,381,"Social conformity",22,"Response to peer pressure",true,"Skill development",38,"Learning new things",true,"Skill development",38,"Learning new things",true,"Social conformity",22,"Response to peer pressure",true,1622,,,,,,,,,
5f1bea7d46be2a4101756238,forced_choice,114,381,"Exhaustion",85,"Sleep and fatigue",true,"Schedule planning",44,"Time management",true,"Schedule planning",44,"Time management",true,"Exhaustion",85,"Sleep and fatigue",true,1334,,,,,,,,,
5f1bea7d46be2a4101756238,forced_choice,115,381,"Recovery capacity",28,"Resilience",true,"Requesting information",4,"Asking questions",true,"Recovery capacity",28,"Resilience",true,"Requesting information",4,"Asking questions",true,1308,,,,,,,,,
5f1bea7d46be2a4101756238,forced_choice,116,381,"Requesting information",4,"Asking questions",true,"Motivation",54,"Motivation",false,"Motivation",54,"Motivation",false,"Requesting information",4,"Asking questions",true,4189,,,,,,,,,
5f1bea7d46be2a4101756238,forced_choice,117,381,"Skill development",38,"Learning new things",true,"Handling disagreements",24,"Managing conflict",true,"Skill development",38,"Learning new things",true,"Handling disagreements",24,"Managing conflict",true,1413,,,,,,,,,
5f1bea7d46be2a4101756238,forced_choice,118,381,"Activity level",73,"Activity level",false,"Managing emotions",29,"Managing emotions",false,"Activity level",73,"Activity level",false,"Managing emotions",29,"Managing emotions",false,846,,,,,,,,,
5f1bea7d46be2a4101756238,forced_choice,119,381,"Cognitive control",34,"Managing thoughts",true,"Organization",43,"Organization",false,"Cognitive control",34,"Managing thoughts",true,"Organization",43,"Organization",false,1000,,,,,,,,,
5f1bea7d46be2a4101756238,forced_choice,120,381,"Skill development",38,"Learning new things",true,"Cognitive control",34,"Managing thoughts",true,"Skill development",38,"Learning new things",true,"Cognitive control",34,"Managing thoughts",true,2377,,,,,,,,,
5f1bea7d46be2a4101756238,forced_choice,121,381,"Educational outcomes",88,"Academic performance",true,"Recovery capacity",28,"Resilience",true,"Educational outcomes",88,"Academic performance",true,"Recovery capacity",28,"Resilience",true,2054,,,,,,,,,
5f1bea7d46be2a4101756238,forced_choice,122,381,"Social connections",9,"Relationships with peers",true,"Handling disagreements",24,"Managing conflict",true,"Handling disagreements",24,"Managing conflict",true,"Social connections",9,"Relationships with peers",true,2914,,,,,,,,,
5f1bea7d46be2a4101756238,forced_choice,123,381,"Cognitive control",34,"Managing thoughts",true,"Handling disagreements",24,"Managing conflict",true,"Cognitive control",34,"Managing thoughts",true,"Handling disagreements",24,"Managing conflict",true,2198,,,,,,,,,
5f1bea7d46be2a4101756238,forced_choice,124,381,"Organization",43,"Organization",false,"Recovery capacity",28,"Resilience",true,"Recovery capacity",28,"Resilience",true,"Organization",43,"Organization",false,4771,,,,,,,,,
5f1bea7d46be2a4101756238,forced_choice,125,381,"Exhaustion",85,"Sleep and fatigue",true,"Handling disagreements",24,"Managing conflict",true,"Handling disagreements",24,"Managing conflict",true,"Exhaustion",85,"Sleep and fatigue",true,930,,,,,,,,,
5f1bea7d46be2a4101756238,forced_choice,126,381,"Messaging",1,"Expressive communication",true,"Requesting information",4,"Asking questions",true,"Requesting information",4,"Asking questions",true,"Messaging",1,"Expressive communication",true,1358,,,,,,,,,
5f1bea7d46be2a4101756238,forced_choice,127,381,"Requesting information",4,"Asking questions",true,"Cognitive control",34,"Managing thoughts",true,"Cognitive control",34,"Managing thoughts",true,"Requesting information",4,"Asking questions",true,1002,,,,,,,,,
5f1bea7d46be2a4101756238,forced_choice,128,381,"Messaging",1,"Expressive communication",true,"Recalling information",41,"Memory",true,"Recalling information",41,"Memory",true,"Messaging",1,"Expressive communication",true,1155,,,,,,,,,
5f1bea7d46be2a4101756238,forced_choice,129,381,"Emotional state",32,"Mood",true,"Activity level",73,"Activity level",false,"Activity level",73,"Activity level",false,"Emotional state",32,"Mood",true,7117,,,,,,,,,
5f1bea7d46be2a4101756238,forced_choice,130,381,"Willpower",75,"Self-control",true,"Managing emotions",29,"Managing emotions",false,"Managing emotions",29,"Managing emotions",false,"Willpower",75,"Self-control",true,8810,,,,,,,,,
5f1bea7d46be2a4101756238,forced_choice,131,381,"Activity level",73,"Activity level",false,"Social conformity",22,"Response to peer pressure",true,"Activity level",73,"Activity level",false,"Social conformity",22,"Response to peer pressure",true,4476,,,,,,,,,
5f1bea7d46be2a4101756238,forced_choice,132,381,"Willpower",75,"Self-control",true,"Student engagement",89,"Class participation",true,"Student engagement",89,"Class participation",true,"Willpower",75,"Self-control",true,1165,,,,,,,,,
5f1bea7d46be2a4101756238,forced_choice,133,381,"Organization",43,"Organization",false,"Messaging",1,"Expressive communication",true,"Messaging",1,"Expressive communication",true,"Organization",43,"Organization",false,1965,,,,,,,,,
5f1bea7d46be2a4101756238,forced_choice,134,381,"Activity level",73,"Activity level",false,"Personal appearance",82,"Self-care / hygiene",true,"Activity level",73,"Activity level",false,"Personal appearance",82,"Self-care / hygiene",true,1144,,,,,,,,,
5f1bea7d46be2a4101756238,forced_choice,135,381,"Recalling information",41,"Memory",true,"Requesting information",4,"Asking questions",true,"Recalling information",41,"Memory",true,"Requesting information",4,"Asking questions",true,2064,,,,,,,,,
5f1bea7d46be2a4101756238,forced_choice,136,381,"Personal security",21,"Sense of safety",true,"Educational outcomes",88,"Academic performance",true,"Educational outcomes",88,"Academic performance",true,"Personal security",21,"Sense of safety",true,1328,,,,,,,,,
5f1bea7d46be2a4101756238,forced_choice,137,381,"Messaging",1,"Expressive communication",true,"Starting projects",46,"Task initiation",true,"Starting projects",46,"Task initiation",true,"Messaging",1,"Expressive communication",true,1361,,,,,,,,,
5f1bea7d46be2a4101756238,forced_choice,138,381,"Educational outcomes",88,"Academic performance",true,"Personal appearance",82,"Self-care / hygiene",true,"Educational outcomes",88,"Academic performance",true,"Personal appearance",82,"Self-care / hygiene",true,2046,,,,,,,,,
5f1bea7d46be2a4101756238,forced_choice,139,381,"Activity level",73,"Activity level",false,"Skill development",38,"Learning new things",true,"Skill development",38,"Learning new things",true,"Activity level",73,"Activity level",false,2115,,,,,,,,,
5f1bea7d46be2a4101756238,forced_choice,140,381,"Willpower",75,"Self-control",true,"Exhaustion",85,"Sleep and fatigue",true,"Willpower",75,"Self-control",true,"Exhaustion",85,"Sleep and fatigue",true,1360,,,,,,,,,
5f1bea7d46be2a4101756238,forced_choice,141,381,"Exhaustion",85,"Sleep and fatigue",true,"Student engagement",89,"Class participation",true,"Student engagement",89,"Class participation",true,"Exhaustion",85,"Sleep and fatigue",true,1301,,,,,,,,,
5f1bea7d46be2a4101756238,forced_choice,142,381,"Managing emotions",29,"Managing emotions",false,"Use of environment",27,"Resourcefulness",true,"Managing emotions",29,"Managing emotions",false,"Use of environment",27,"Resourcefulness",true,2070,,,,,,,,,
5f1bea7d46be2a4101756238,forced_choice,143,381,"Willpower",75,"Self-control",true,"Bullying",23,"Bullying",false,"Willpower",75,"Self-control",true,"Bullying",23,"Bullying",false,1633,,,,,,,,,
5f1bea7d46be2a4101756238,forced_choice,144,381,"Student engagement",89,"Class participation",true,"Bullying",23,"Bullying",false,"Student engagement",89,"Class participation",true,"Bullying",23,"Bullying",false,1288,,,,,,,,,
5f1bea7d46be2a4101756238,forced_choice,145,381,"Requesting information",4,"Asking questions",true,"Student engagement",89,"Class participation",true,"Student engagement",89,"Class participation",true,"Requesting information",4,"Asking questions",true,1852,,,,,,,,,
5f1bea7d46be2a4101756238,forced_choice,146,381,"Assisting others",63,"Helpfulness",true,"Managing emotions",29,"Managing emotions",false,"Managing emotions",29,"Managing emotions",false,"Assisting others",63,"Helpfulness",true,1361,,,,,,,,,
5f1bea7d46be2a4101756238,forced_choice,147,381,"Personal appearance",82,"Self-care / hygiene",true,"Schedule planning",44,"Time management",true,"Personal appearance",82,"Self-care / hygiene",true,"Schedule planning",44,"Time management",true,3415,,,,,,,,,
5f1bea7d46be2a4101756238,forced_choice,148,381,"Willpower",75,"Self-control",true,"Personal appearance",82,"Self-care / hygiene",true,"Willpower",75,"Self-control",true,"Personal appearance",82,"Self-care / hygiene",true,1708,,,,,,,,,
5f1bea7d46be2a4101756238,forced_choice,149,381,"Bullying",23,"Bullying",false,"Personal appearance",82,"Self-care / hygiene",true,"Bullying",23,"Bullying",false,"Personal appearance",82,"Self-care / hygiene",true,1562,,,,,,,,,
5f1bea7d46be2a4101756238,forced_choice,150,381,"Cognitive control",34,"Managing thoughts",true,"Willpower",75,"Self-control",true,"Cognitive control",34,"Managing thoughts",true,"Willpower",75,"Self-control",true,1087,,,,,,,,,
5f1bea7d46be2a4101756238,forced_choice,151,381,"Motivation",54,"Motivation",false,"Handling disagreements",24,"Managing conflict",true,"Motivation",54,"Motivation",false,"Handling disagreements",24,"Managing conflict",true,1745,,,,,,,,,
5f1bea7d46be2a4101756238,forced_choice,152,381,"Requesting information",4,"Asking questions",true,"Emotional state",32,"Mood",true,"Emotional state",32,"Mood",true,"Requesting information",4,"Asking questions",true,1843,,,,,,,,,
5f1bea7d46be2a4101756238,forced_choice,153,381,"Willpower",75,"Self-control",true,"Recalling information",41,"Memory",true,"Recalling information",41,"Memory",true,"Willpower",75,"Self-control",true,1437,,,,,,,,,
5f1bea7d46be2a4101756238,forced_choice,154,381,"Handling disagreements",24,"Managing conflict",true,"Organization",43,"Organization",false,"Handling disagreements",24,"Managing conflict",true,"Organization",43,"Organization",false,1246,,,,,,,,,
5f1bea7d46be2a4101756238,forced_choice,155,381,"Recalling information",41,"Memory",true,"Skill development",38,"Learning new things",true,"Skill development",38,"Learning new things",true,"Recalling information",41,"Memory",true,1106,,,,,,,,,
5f1bea7d46be2a4101756238,forced_choice,156,381,"Organization",43,"Organization",false,"Skill development",38,"Learning new things",true,"Skill development",38,"Learning new things",true,"Organization",43,"Organization",false,838,,,,,,,,,
5f1bea7d46be2a4101756238,forced_choice,157,381,"Organization",43,"Organization",false,"Activity level",73,"Activity level",false,"Activity level",73,"Activity level",false,"Organization",43,"Organization",false,1666,,,,,,,,,
5f1bea7d46be2a4101756238,forced_choice,158,381,"Personal security",21,"Sense of safety",true,"Social conformity",22,"Response to peer pressure",true,"Social conformity",22,"Response to peer pressure",true,"Personal security",21,"Sense of safety",true,1651,,,,,,,,,
5f1bea7d46be2a4101756238,forced_choice,159,381,"Assisting others",63,"Helpfulness",true,"Schedule planning",44,"Time management",true,"Assisting others",63,"Helpfulness",true,"Schedule planning",44,"Time management",true,27189,,,,,,,,,
5f1bea7d46be2a4101756238,forced_choice,160,381,"Managing emotions",29,"Managing emotions",false,"Requesting information",4,"Asking questions",true,"Managing emotions",29,"Managing emotions",false,"Requesting information",4,"Asking questions",true,2075,,,,,,,,,
5f1bea7d46be2a4101756238,forced_choice,161,381,"Personal appearance",82,"Self-care / hygiene",true,"Emotional state",32,"Mood",true,"Personal appearance",82,"Self-care / hygiene",true,"Emotional state",32,"Mood",true,1700,,,,,,,,,
5f1bea7d46be2a4101756238,forced_choice,162,381,"Bullying",23,"Bullying",false,"Use of environment",27,"Resourcefulness",true,"Use of environment",27,"Resourcefulness",true,"Bullying",23,"Bullying",false,1686,,,,,,,,,
5f1bea7d46be2a4101756238,forced_choice,163,381,"Willpower",75,"Self-control",true,"Activity level",73,"Activity level",false,"Activity level",73,"Activity level",false,"Willpower",75,"Self-control",true,944,,,,,,,,,
5f1bea7d46be2a4101756238,forced_choice,164,381,"Assisting others",63,"Helpfulness",true,"Bullying",23,"Bullying",false,"Assisting others",63,"Helpfulness",true,"Bullying",23,"Bullying",false,1406,,,,,,,,,
5f1bea7d46be2a4101756238,attention_check,167,,,,,,,,,,,,,,,,,,1368,"Social skills","Social skills",true,,,,,,
5f1bea7d46be2a4101756238,forced_choice,165,381,"Social conformity",22,"Response to peer pressure",true,"Starting projects",46,"Task initiation",true,"Starting projects",46,"Task initiation",true,"Social conformity",22,"Response to peer pressure",true,2167,,,,,,,,,
5f1bea7d46be2a4101756238,forced_choice,166,381,"Requesting information",4,"Asking questions",true,"Handling disagreements",24,"Managing conflict",true,"Requesting information",4,"Asking questions",true,"Handling disagreements",24,"Managing conflict",true,1710,,,,,,,,,
5f1bea7d46be2a4101756238,forced_choice,167,381,"Organization",43,"Organization",false,"Starting projects",46,"Task initiation",true,"Starting projects",46,"Task initiation",true,"Organization",43,"Organization",false,2230,,,,,,,,,
5f1bea7d46be2a4101756238,forced_choice,168,381,"Organization",43,"Organization",false,"Social conformity",22,"Response to peer pressure",true,"Organization",43,"Organization",false,"Social conformity",22,"Response to peer pressure",true,1421,,,,,,,,,
5f1bea7d46be2a4101756238,forced_choice,169,381,"Use of environment",27,"Resourcefulness",true,"Schedule planning",44,"Time management",true,"Use of environment",27,"Resourcefulness",true,"Schedule planning",44,"Time management",true,1502,,,,,,,,,
5f1bea7d46be2a4101756238,forced_choice,170,381,"Skill development",38,"Learning new things",true,"Messaging",1,"Expressive communication",true,"Skill development",38,"Learning new things",true,"Messaging",1,"Expressive communication",true,1315,,,,,,,,,
5f1bea7d46be2a4101756238,forced_choice,171,381,"Use of environment",27,"Resourcefulness",true,"Personal security",21,"Sense of safety",true,"Use of environment",27,"Resourcefulness",true,"Personal security",21,"Sense of safety",true,1654,,,,,,,,,
5f1bea7d46be2a4101756238,forced_choice,172,381,"Student engagement",89,"Class participation",true,"Assisting others",63,"Helpfulness",true,"Student engagement",89,"Class participation",true,"Assisting others",63,"Helpfulness",true,2192,,,,,,,,,
5f1bea7d46be2a4101756238,forced_choice,173,381,"Emotional state",32,"Mood",true,"Willpower",75,"Self-control",true,"Emotional state",32,"Mood",true,"Willpower",75,"Self-control",true,1090,,,,,,,,,
5f1bea7d46be2a4101756238,forced_choice,174,381,"Educational outcomes",88,"Academic performance",true,"Schedule planning",44,"Time management",true,"Educational outcomes",88,"Academic performance",true,"Schedule planning",44,"Time management",true,1426,,,,,,,,,
5f1bea7d46be2a4101756238,forced_choice,175,381,"Activity level",73,"Activity level",false,"Motivation",54,"Motivation",false,"Activity level",73,"Activity level",false,"Motivation",54,"Motivation",false,946,,,,,,,,,
5f1bea7d46be2a4101756238,forced_choice,176,381,"Personal appearance",82,"Self-care / hygiene",true,"Messaging",1,"Expressive communication",true,"Messaging",1,"Expressive communication",true,"Personal appearance",82,"Self-care / hygiene",true,1089,,,,,,,,,
5f1bea7d46be2a4101756238,forced_choice,177,381,"Use of environment",27,"Resourcefulness",true,"Handling disagreements",24,"Managing conflict",true,"Use of environment",27,"Resourcefulness",true,"Handling disagreements",24,"Managing conflict",true,1114,,,,,,,,,
5f1bea7d46be2a4101756238,forced_choice,178,381,"Exhaustion",85,"Sleep and fatigue",true,"Use of environment",27,"Resourcefulness",true,"Use of environment",27,"Resourcefulness",true,"Exhaustion",85,"Sleep and fatigue",true,1079,,,,,,,,,
5f1bea7d46be2a4101756238,forced_choice,179,381,"Personal security",21,"Sense of safety",true,"Personal appearance",82,"Self-care / hygiene",true,"Personal appearance",82,"Self-care / hygiene",true,"Personal security",21,"Sense of safety",true,1326,,,,,,,,,
5f1bea7d46be2a4101756238,forced_choice,180,381,"Educational outcomes",88,"Academic performance",true,"Cognitive control",34,"Managing thoughts",true,"Cognitive control",34,"Managing thoughts",true,"Educational outcomes",88,"Academic performance",true,1748,,,,,,,,,
5f1bea7d46be2a4101756238,forced_choice,181,381,"Recalling information",41,"Memory",true,"Managing emotions",29,"Managing emotions",false,"Recalling information",41,"Memory",true,"Managing emotions",29,"Managing emotions",false,2457,,,,,,,,,
5f1bea7d46be2a4101756238,forced_choice,182,381,"Schedule planning",44,"Time management",true,"Recalling information",41,"Memory",true,"Recalling information",41,"Memory",true,"Schedule planning",44,"Time management",true,1677,,,,,,,,,
5f1bea7d46be2a4101756238,forced_choice,183,381,"Willpower",75,"Self-control",true,"Messaging",1,"Expressive communication",true,"Willpower",75,"Self-control",true,"Messaging",1,"Expressive communication",true,1118,,,,,,,,,
5f1bea7d46be2a4101756238,forced_choice,184,381,"Requesting information",4,"Asking questions",true,"Starting projects",46,"Task initiation",true,"Requesting information",4,"Asking questions",true,"Starting projects",46,"Task initiation",true,2072,,,,,,,,,
5f1bea7d46be2a4101756238,forced_choice,185,381,"Responsibility",66,"Responsibility",false,"Skill development",38,"Learning new things",true,"Skill development",38,"Learning new things",true,"Responsibility",66,"Responsibility",false,1314,,,,,,,,,
5f1bea7d46be2a4101756238,forced_choice,186,381,"Student engagement",89,"Class participation",true,"Schedule planning",44,"Time management",true,"Student engagement",89,"Class participation",true,"Schedule planning",44,"Time management",true,1358,,,,,,,,,
5f1bea7d46be2a4101756238,forced_choice,187,381,"Responsibility",66,"Responsibility",false,"Managing emotions",29,"Managing emotions",false,"Managing emotions",29,"Managing emotions",false,"Responsibility",66,"Responsibility",false,1205,,,,,,,,,
5f1bea7d46be2a4101756238,forced_choice,188,381,"Recovery capacity",28,"Resilience",true,"Skill development",38,"Learning new things",true,"Skill development",38,"Learning new things",true,"Recovery capacity",28,"Resilience",true,1294,,,,,,,,,
5f1bea7d46be2a4101756238,forced_choice,189,381,"Messaging",1,"Expressive communication",true,"Managing emotions",29,"Managing emotions",false,"Managing emotions",29,"Managing emotions",false,"Messaging",1,"Expressive communication",true,1322,,,,,,,,,
5f1bea7d46be2a4101756238,forced_choice,190,381,"Organization",43,"Organization",false,"Personal security",21,"Sense of safety",true,"Organization",43,"Organization",false,"Personal security",21,"Sense of safety",true,2316,,,,,,,,,
5f1bea7d46be2a4101756238,forced_choice,191,381,"Emotional state",32,"Mood",true,"Managing emotions",29,"Managing emotions",false,"Managing emotions",29,"Managing emotions",false,"Emotional state",32,"Mood",true,951,,,,,,,,,
5f1bea7d46be2a4101756238,forced_choice,192,381,"Use of environment",27,"Resourcefulness",true,"Motivation",54,"Motivation",false,"Use of environment",27,"Resourcefulness",true,"Motivation",54,"Motivation",false,1169,,,,,,,,,
5f1bea7d46be2a4101756238,forced_choice,193,381,"Personal security",21,"Sense of safety",true,"Emotional state",32,"Mood",true,"Emotional state",32,"Mood",true,"Personal security",21,"Sense of safety",true,1028,,,,,,,,,
5f1bea7d46be2a4101756238,forced_choice,194,381,"Exhaustion",85,"Sleep and fatigue",true,"Educational outcomes",88,"Academic performance",true,"Educational outcomes",88,"Academic performance",true,"Exhaustion",85,"Sleep and fatigue",true,1491,,,,,,,,,
5f1bea7d46be2a4101756238,forced_choice,195,381,"Recovery capacity",28,"Resilience",true,"Messaging",1,"Expressive communication",true,"Recovery capacity",28,"Resilience",true,"Messaging",1,"Expressive communication",true,1316,,,,,,,,,
5f1bea7d46be2a4101756238,forced_choice,196,381,"Managing emotions",29,"Managing emotions",false,"Cognitive control",34,"Managing thoughts",true,"Managing emotions",29,"Managing emotions",false,"Cognitive control",34,"Managing thoughts",true,10793,,,,,,,,,
5f1bea7d46be2a4101756238,forced_choice,197,381,"Social connections",9,"Relationships with peers",true,"Responsibility",66,"Responsibility",false,"Responsibility",66,"Responsibility",false,"Social connections",9,"Relationships with peers",true,1139,,,,,,,,,
5f1bea7d46be2a4101756238,forced_choice,198,381,"Managing emotions",29,"Managing emotions",false,"Motivation",54,"Motivation",false,"Managing emotions",29,"Managing emotions",false,"Motivation",54,"Motivation",false,2636,,,,,,,,,
5f1bea7d46be2a4101756238,forced_choice,199,381,"Organization",43,"Organization",false,"Personal appearance",82,"Self-care / hygiene",true,"Organization",43,"Organization",false,"Personal appearance",82,"Self-care / hygiene",true,1164,,,,,,,,,
5f1bea7d46be2a4101756238,forced_choice,200,381,"Personal appearance",82,"Self-care / hygiene",true,"Social conformity",22,"Response to peer pressure",true,"Personal appearance",82,"Self-care / hygiene",true,"Social conformity",22,"Response to peer pressure",true,1660,,,,,,,,,
5f1bea7d46be2a4101756238,forced_choice,201,381,"Bullying",23,"Bullying",false,"Skill development",38,"Learning new things",true,"Skill development",38,"Learning new things",true,"Bullying",23,"Bullying",false,12116,,,,,,,,,
5f1bea7d46be2a4101756238,forced_choice,202,381,"Personal security",21,"Sense of safety",true,"Student engagement",89,"Class participation",true,"Student engagement",89,"Class participation",true,"Personal security",21,"Sense of safety",true,5852,,,,,,,,,
5f1bea7d46be2a4101756238,forced_choice,203,381,"Starting projects",46,"Task initiation",true,"Personal security",21,"Sense of safety",true,"Starting projects",46,"Task initiation",true,"Personal security",21,"Sense of safety",true,1510,,,,,,,,,
5f1bea7d46be2a4101756238,forced_choice,204,381,"Responsibility",66,"Responsibility",false,"Schedule planning",44,"Time management",true,"Responsibility",66,"Responsibility",false,"Schedule planning",44,"Time management",true,1556,,,,,,,,,
5f1bea7d46be2a4101756238,forced_choice,205,381,"Exhaustion",85,"Sleep and fatigue",true,"Assisting others",63,"Helpfulness",true,"Assisting others",63,"Helpfulness",true,"Exhaustion",85,"Sleep and fatigue",true,1328,,,,,,,,,
5f1bea7d46be2a4101756238,forced_choice,206,381,"Educational outcomes",88,"Academic performance",true,"Skill development",38,"Learning new things",true,"Skill development",38,"Learning new things",true,"Educational outcomes",88,"Academic performance",true,1673,,,,,,,,,
5f1bea7d46be2a4101756238,forced_choice,207,381,"Skill development",38,"Learning new things",true,"Motivation",54,"Motivation",false,"Skill development",38,"Learning new things",true,"Motivation",54,"Motivation",false,1137,,,,,,,,,
5f1bea7d46be2a4101756238,forced_choice,208,381,"Motivation",54,"Motivation",false,"Organization",43,"Organization",false,"Motivation",54,"Motivation",false,"Organization",43,"Organization",false,1569,,,,,,,,,
5f1bea7d46be2a4101756238,forced_choice,209,381,"Organization",43,"Organization",false,"Requesting information",4,"Asking questions",true,"Organization",43,"Organization",false,"Requesting information",4,"Asking questions",true,10410,,,,,,,,,
5f1bea7d46be2a4101756238,forced_choice,210,381,"Activity level",73,"Activity level",false,"Social connections",9,"Relationships with peers",true,"Activity level",73,"Activity level",false,"Social connections",9,"Relationships with peers",true,1274,,,,,,,,,
5f1bea7d46be2a4101756238,forced_choice,211,381,"Cognitive control",34,"Managing thoughts",true,"Bullying",23,"Bullying",false,"Cognitive control",34,"Managing thoughts",true,"Bullying",23,"Bullying",false,1129,,,,,,,,,
5f1bea7d46be2a4101756238,forced_choice,212,381,"Managing emotions",29,"Managing emotions",false,"Social connections",9,"Relationships with peers",true,"Managing emotions",29,"Managing emotions",false,"Social connections",9,"Relationships with peers",true,1444,,,,,,,,,
5f1bea7d46be2a4101756238,forced_choice,213,381,"Assisting others",63,"Helpfulness",true,"Use of environment",27,"Resourcefulness",true,"Use of environment",27,"Resourcefulness",true,"Assisting others",63,"Helpfulness",true,1940,,,,,,,,,
5f1bea7d46be2a4101756238,forced_choice,214,381,"Social conformity",22,"Response to peer pressure",true,"Recalling information",41,"Memory",true,"Recalling information",41,"Memory",true,"Social conformity",22,"Response to peer pressure",true,1119,,,,,,,,,
5f1bea7d46be2a4101756238,forced_choice,215,381,"Schedule planning",44,"Time management",true,"Social connections",9,"Relationships with peers",true,"Social connections",9,"Relationships with peers",true,"Schedule planning",44,"Time management",true,949,,,,,,,,,
5f1bea7d46be2a4101756238,forced_choice,216,381,"Schedule planning",44,"Time management",true,"Activity level",73,"Activity level",false,"Activity level",73,"Activity level",false,"Schedule planning",44,"Time management",true,7813,,,,,,,,,
5f1bea7d46be2a4101756238,forced_choice,217,381,"Responsibility",66,"Responsibility",false,"Messaging",1,"Expressive communication",true,"Responsibility",66,"Responsibility",false,"Messaging",1,"Expressive communication",true,1110,,,,,,,,,
5f1bea7d46be2a4101756238,forced_choice,218,381,"Recovery capacity",28,"Resilience",true,"Personal appearance",82,"Self-care / hygiene",true,"Personal appearance",82,"Self-care / hygiene",true,"Recovery capacity",28,"Resilience",true,1577,,,,,,,,,
5f1bea7d46be2a4101756238,forced_choice,219,381,"Requesting information",4,"Asking questions",true,"Bullying",23,"Bullying",false,"Requesting information",4,"Asking questions",true,"Bullying",23,"Bullying",false,1663,,,,,,,,,
5f1bea7d46be2a4101756238,attention_check,223,,,,,,,,,,,,,,,,,,1345,"Managing emotions","Managing emotions",true,,,,,,
5f1bea7d46be2a4101756238,forced_choice,220,381,"Personal security",21,"Sense of safety",true,"Assisting others",63,"Helpfulness",true,"Personal security",21,"Sense of safety",true,"Assisting others",63,"Helpfulness",true,1495,,,,,,,,,
5f1bea7d46be2a4101756238,forced_choice,221,381,"Messaging",1,"Expressive communication",true,"Motivation",54,"Motivation",false,"Messaging",1,"Expressive communication",true,"Motivation",54,"Motivation",false,1263,,,,,,,,,
5f1bea7d46be2a4101756238,forced_choice,222,381,"Assisting others",63,"Helpfulness",true,"Personal appearance",82,"Self-care / hygiene",true,"Personal appearance",82,"Self-care / hygiene",true,"Assisting others",63,"Helpfulness",true,1303,,,,,,,,,
5f1bea7d46be2a4101756238,forced_choice,223,381,"Skill development",38,"Learning new things",true,"Requesting information",4,"Asking questions",true,"Skill development",38,"Learning new things",true,"Requesting information",4,"Asking questions",true,1439,,,,,,,,,
5f1bea7d46be2a4101756238,forced_choice,224,381,"Emotional state",32,"Mood",true,"Responsibility",66,"Responsibility",false,"Emotional state",32,"Mood",true,"Responsibility",66,"Responsibility",false,1372,,,,,,,,,
5f1bea7d46be2a4101756238,forced_choice,225,381,"Handling disagreements",24,"Managing conflict",true,"Social conformity",22,"Response to peer pressure",true,"Handling disagreements",24,"Managing conflict",true,"Social conformity",22,"Response to peer pressure",true,1195,,,,,,,,,
5f1bea7d46be2a4101756238,forced_choice,226,381,"Schedule planning",44,"Time management",true,"Organization",43,"Organization",false,"Organization",43,"Organization",false,"Schedule planning",44,"Time management",true,2628,,,,,,,,,
5f1bea7d46be2a4101756238,forced_choice,227,381,"Bullying",23,"Bullying",false,"Motivation",54,"Motivation",false,"Motivation",54,"Motivation",false,"Bullying",23,"Bullying",false,1322,,,,,,,,,
5f1bea7d46be2a4101756238,forced_choice,228,381,"Assisting others",63,"Helpfulness",true,"Responsibility",66,"Responsibility",false,"Assisting others",63,"Helpfulness",true,"Responsibility",66,"Responsibility",false,1876,,,,,,,,,
5f1bea7d46be2a4101756238,forced_choice,229,381,"Managing emotions",29,"Managing emotions",false,"Organization",43,"Organization",false,"Managing emotions",29,"Managing emotions",false,"Organization",43,"Organization",false,1082,,,,,,,,,
5f1bea7d46be2a4101756238,forced_choice,230,381,"Skill development",38,"Learning new things",true,"Emotional state",32,"Mood",true,"Skill development",38,"Learning new things",true,"Emotional state",32,"Mood",true,1710,,,,,,,,,
5f1bea7d46be2a4101756238,forced_choice,231,381,"Bullying",23,"Bullying",false,"Activity level",73,"Activity level",false,"Activity level",73,"Activity level",false,"Bullying",23,"Bullying",false,1205,,,,,,,,,
5f1bea7d46be2a4101756238,forced_choice,232,381,"Exhaustion",85,"Sleep and fatigue",true,"Messaging",1,"Expressive communication",true,"Messaging",1,"Expressive communication",true,"Exhaustion",85,"Sleep and fatigue",true,1164,,,,,,,,,
5f1bea7d46be2a4101756238,forced_choice,233,381,"Cognitive control",34,"Managing thoughts",true,"Student engagement",89,"Class participation",true,"Cognitive control",34,"Managing thoughts",true,"Student engagement",89,"Class participation",true,4546,,,,,,,,,
5f1bea7d46be2a4101756238,forced_choice,234,381,"Willpower",75,"Self-control",true,"Skill development",38,"Learning new things",true,"Skill development",38,"Learning new things",true,"Willpower",75,"Self-control",true,897,,,,,,,,,
5f1bea7d46be2a4101756238,forced_choice,235,381,"Motivation",54,"Motivation",false,"Starting projects",46,"Task initiation",true,"Motivation",54,"Motivation",false,"Starting projects",46,"Task initiation",true,1062,,,,,,,,,
5f1bea7d46be2a4101756238,forced_choice,236,381,"Educational outcomes",88,"Academic performance",true,"Student engagement",89,"Class participation",true,"Student engagement",89,"Class participation",true,"Educational outcomes",88,"Academic performance",true,33716,,,,,,,,,
5f1bea7d46be2a4101756238,forced_choice,237,381,"Recovery capacity",28,"Resilience",true,"Emotional state",32,"Mood",true,"Emotional state",32,"Mood",true,"Recovery capacity",28,"Resilience",true,4250,,,,,,,,,
5f1bea7d46be2a4101756238,forced_choice,238,381,"Managing emotions",29,"Managing emotions",false,"Exhaustion",85,"Sleep and fatigue",true,"Managing emotions",29,"Managing emotions",false,"Exhaustion",85,"Sleep and fatigue",true,1723,,,,,,,,,
5f1bea7d46be2a4101756238,forced_choice,239,381,"Organization",43,"Organization",false,"Exhaustion",85,"Sleep and fatigue",true,"Exhaustion",85,"Sleep and fatigue",true,"Organization",43,"Organization",false,1654,,,,,,,,,
5f1bea7d46be2a4101756238,forced_choice,240,381,"Educational outcomes",88,"Academic performance",true,"Assisting others",63,"Helpfulness",true,"Educational outcomes",88,"Academic performance",true,"Assisting others",63,"Helpfulness",true,1238,,,,,,,,,
5f1bea7d46be2a4101756238,forced_choice,241,381,"Emotional state",32,"Mood",true,"Social conformity",22,"Response to peer pressure",true,"Emotional state",32,"Mood",true,"Social conformity",22,"Response to peer pressure",true,6904,,,,,,,,,
5f1bea7d46be2a4101756238,forced_choice,242,381,"Managing emotions",29,"Managing emotions",false,"Personal appearance",82,"Self-care / hygiene",true,"Managing emotions",29,"Managing emotions",false,"Personal appearance",82,"Self-care / hygiene",true,1666,,,,,,,,,
5f1bea7d46be2a4101756238,forced_choice,243,381,"Assisting others",63,"Helpfulness",true,"Recalling information",41,"Memory",true,"Recalling information",41,"Memory",true,"Assisting others",63,"Helpfulness",true,4278,,,,,,,,,
5f1bea7d46be2a4101756238,forced_choice,244,381,"Personal appearance",82,"Self-care / hygiene",true,"Social connections",9,"Relationships with peers",true,"Personal appearance",82,"Self-care / hygiene",true,"Social connections",9,"Relationships with peers",true,3860,,,,,,,,,
5f1bea7d46be2a4101756238,forced_choice,245,381,"Educational outcomes",88,"Academic performance",true,"Messaging",1,"Expressive communication",true,"Educational outcomes",88,"Academic performance",true,"Messaging",1,"Expressive communication",true,1213,,,,,,,,,
5f1bea7d46be2a4101756238,forced_choice,246,381,"Motivation",54,"Motivation",false,"Willpower",75,"Self-control",true,"Motivation",54,"Motivation",false,"Willpower",75,"Self-control",true,1259,,,,,,,,,
5f1bea7d46be2a4101756238,forced_choice,247,381,"Motivation",54,"Motivation",false,"Social conformity",22,"Response to peer pressure",true,"Motivation",54,"Motivation",false,"Social conformity",22,"Response to peer pressure",true,1004,,,,,,,,,
5f1bea7d46be2a4101756238,forced_choice,248,381,"Social connections",9,"Relationships with peers",true,"Cognitive control",34,"Managing thoughts",true,"Cognitive control",34,"Managing thoughts",true,"Social connections",9,"Relationships with peers",true,1096,,,,,,,,,
5f1bea7d46be2a4101756238,forced_choice,249,381,"Recovery capacity",28,"Resilience",true,"Activity level",73,"Activity level",false,"Activity level",73,"Activity level",false,"Recovery capacity",28,"Resilience",true,2254,,,,,,,,,
5f1bea7d46be2a4101756238,forced_choice,250,381,"Messaging",1,"Expressive communication",true,"Schedule planning",44,"Time management",true,"Messaging",1,"Expressive communication",true,"Schedule planning",44,"Time management",true,1344,,,,,,,,,
5f1bea7d46be2a4101756238,forced_choice,251,381,"Recovery capacity",28,"Resilience",true,"Personal security",21,"Sense of safety",true,"Recovery capacity",28,"Resilience",true,"Personal security",21,"Sense of safety",true,1054,,,,,,,,,
5f1bea7d46be2a4101756238,forced_choice,252,381,"Cognitive control",34,"Managing thoughts",true,"Responsibility",66,"Responsibility",false,"Cognitive control",34,"Managing thoughts",true,"Responsibility",66,"Responsibility",false,2787,,,,,,,,,
5f1bea7d46be2a4101756238,forced_choice,253,381,"Social connections",9,"Relationships with peers",true,"Educational outcomes",88,"Academic performance",true,"Educational outcomes",88,"Academic performance",true,"Social connections",9,"Relationships with peers",true,4128,,,,,,,,,
5f1bea7d46be2a4101756238,forced_choice,254,381,"Willpower",75,"Self-control",true,"Assisting others",63,"Helpfulness",true,"Willpower",75,"Self-control",true,"Assisting others",63,"Helpfulness",true,1035,,,,,,,,,
5f1bea7d46be2a4101756238,forced_choice,255,381,"Recalling information",41,"Memory",true,"Organization",43,"Organization",false,"Recalling information",41,"Memory",true,"Organization",43,"Organization",false,1362,,,,,,,,,
5f1bea7d46be2a4101756238,forced_choice,256,381,"Social connections",9,"Relationships with peers",true,"Use of environment",27,"Resourcefulness",true,"Use of environment",27,"Resourcefulness",true,"Social connections",9,"Relationships with peers",true,3600,,,,,,,,,
5f1bea7d46be2a4101756238,forced_choice,257,381,"Motivation",54,"Motivation",false,"Recalling information",41,"Memory",true,"Motivation",54,"Motivation",false,"Recalling information",41,"Memory",true,1221,,,,,,,,,
5f1bea7d46be2a4101756238,forced_choice,258,381,"Starting projects",46,"Task initiation",true,"Exhaustion",85,"Sleep and fatigue",true,"Starting projects",46,"Task initiation",true,"Exhaustion",85,"Sleep and fatigue",true,1124,,,,,,,,,
5f1bea7d46be2a4101756238,forced_choice,259,381,"Social connections",9,"Relationships with peers",true,"Starting projects",46,"Task initiation",true,"Starting projects",46,"Task initiation",true,"Social connections",9,"Relationships with peers",true,1458,,,,,,,,,
5f1bea7d46be2a4101756238,forced_choice,260,381,"Starting projects",46,"Task initiation",true,"Personal appearance",82,"Self-care / hygiene",true,"Starting projects",46,"Task initiation",true,"Personal appearance",82,"Self-care / hygiene",true,1937,,,,,,,,,
5f1bea7d46be2a4101756238,forced_choice,261,381,"Schedule planning",44,"Time management",true,"Recovery capacity",28,"Resilience",true,"Recovery capacity",28,"Resilience",true,"Schedule planning",44,"Time management",true,1880,,,,,,,,,
5f1bea7d46be2a4101756238,forced_choice,262,381,"Handling disagreements",24,"Managing conflict",true,"Recovery capacity",28,"Resilience",true,"Recovery capacity",28,"Resilience",true,"Handling disagreements",24,"Managing conflict",true,2528,,,,,,,,,
5f1bea7d46be2a4101756238,forced_choice,263,381,"Organization",43,"Organization",false,"Bullying",23,"Bullying",false,"Bullying",23,"Bullying",false,"Organization",43,"Organization",false,22119,,,,,,,,,
5f1bea7d46be2a4101756238,forced_choice,264,381,"Bullying",23,"Bullying",false,"Social conformity",22,"Response to peer pressure",true,"Social conformity",22,"Response to peer pressure",true,"Bullying",23,"Bullying",false,93,,,,,,,,,
5f1bea7d46be2a4101756238,forced_choice,265,381,"Personal security",21,"Sense of safety",true,"Skill development",38,"Learning new things",true,"Skill development",38,"Learning new things",true,"Personal security",21,"Sense of safety",true,974,,,,,,,,,
5f1bea7d46be2a4101756238,forced_choice,266,381,"Responsibility",66,"Responsibility",false,"Organization",43,"Organization",false,"Responsibility",66,"Responsibility",false,"Organization",43,"Organization",false,985,,,,,,,,,
5f1bea7d46be2a4101756238,forced_choice,267,381,"Requesting information",4,"Asking questions",true,"Social connections",9,"Relationships with peers",true,"Social connections",9,"Relationships with peers",true,"Requesting information",4,"Asking questions",true,1973,,,,,,,,,
5f1bea7d46be2a4101756238,forced_choice,268,381,"Assisting others",63,"Helpfulness",true,"Social conformity",22,"Response to peer pressure",true,"Assisting others",63,"Helpfulness",true,"Social conformity",22,"Response to peer pressure",true,1791,,,,,,,,,
5f1bea7d46be2a4101756238,forced_choice,269,381,"Recalling information",41,"Memory",true,"Bullying",23,"Bullying",false,"Recalling information",41,"Memory",true,"Bullying",23,"Bullying",false,1446,,,,,,,,,
5f1bea7d46be2a4101756238,forced_choice,270,381,"Messaging",1,"Expressive communication",true,"Social conformity",22,"Response to peer pressure",true,"Messaging",1,"Expressive communication",true,"Social conformity",22,"Response to peer pressure",true,1134,,,,,,,,,
5f1bea7d46be2a4101756238,forced_choice,271,381,"Starting projects",46,"Task initiation",true,"Handling disagreements",24,"Managing conflict",true,"Handling disagreements",24,"Managing conflict",true,"Starting projects",46,"Task initiation",true,1775,,,,,,,,,
5f1bea7d46be2a4101756238,forced_choice,272,381,"Personal appearance",82,"Self-care / hygiene",true,"Responsibility",66,"Responsibility",false,"Personal appearance",82,"Self-care / hygiene",true,"Responsibility",66,"Responsibility",false,2886,,,,,,,,,
5f1bea7d46be2a4101756238,forced_choice,273,381,"Handling disagreements",24,"Managing conflict",true,"Student engagement",89,"Class participation",true,"Student engagement",89,"Class participation",true,"Handling disagreements",24,"Managing conflict",true,1490,,,,,,,,,
5f1bea7d46be2a4101756238,forced_choice,274,381,"Messaging",1,"Expressive communication",true,"Bullying",23,"Bullying",false,"Messaging",1,"Expressive communication",true,"Bullying",23,"Bullying",false,1808,,,,,,,,,
5f1bea7d46be2a4101756238,attention_check,279,,,,,,,,,,,,,,,,,,1440,"Managing emotions","Managing emotions",true,,,,,,
5f1bea7d46be2a4101756238,forced_choice,275,381,"Student engagement",89,"Class participation",true,"Activity level",73,"Activity level",false,"Student engagement",89,"Class participation",true,"Activity level",73,"Activity level",false,1882,,,,,,,,,
5f1bea7d46be2a4101756238,forced_choice,276,381,"Managing emotions",29,"Managing emotions",false,"Social conformity",22,"Response to peer pressure",true,"Managing emotions",29,"Managing emotions",false,"Social conformity",22,"Response to peer pressure",true,1707,,,,,,,,,
5f1bea7d46be2a4101756238,forced_choice,277,381,"Motivation",54,"Motivation",false,"Exhaustion",85,"Sleep and fatigue",true,"Motivation",54,"Motivation",false,"Exhaustion",85,"Sleep and fatigue",true,1577,,,,,,,,,
5f1bea7d46be2a4101756238,forced_choice,278,381,"Exhaustion",85,"Sleep and fatigue",true,"Cognitive control",34,"Managing thoughts",true,"Cognitive control",34,"Managing thoughts",true,"Exhaustion",85,"Sleep and fatigue",true,838,,,,,,,,,
5f1bea7d46be2a4101756238,forced_choice,279,381,"Messaging",1,"Expressive communication",true,"Social connections",9,"Relationships with peers",true,"Messaging",1,"Expressive communication",true,"Social connections",9,"Relationships with peers",true,1062,,,,,,,,,
5f1bea7d46be2a4101756238,forced_choice,280,381,"Personal appearance",82,"Self-care / hygiene",true,"Recalling information",41,"Memory",true,"Recalling information",41,"Memory",true,"Personal appearance",82,"Self-care / hygiene",true,1334,,,,,,,,,
5f1bea7d46be2a4101756238,forced_choice,281,381,"Assisting others",63,"Helpfulness",true,"Organization",43,"Organization",false,"Assisting others",63,"Helpfulness",true,"Organization",43,"Organization",false,1336,,,,,,,,,
5f1bea7d46be2a4101756238,forced_choice,282,381,"Student engagement",89,"Class participation",true,"Recalling information",41,"Memory",true,"Recalling information",41,"Memory",true,"Student engagement",89,"Class participation",true,1562,,,,,,,,,
5f1bea7d46be2a4101756238,forced_choice,283,381,"Educational outcomes",88,"Academic performance",true,"Emotional state",32,"Mood",true,"Educational outcomes",88,"Academic performance",true,"Emotional state",32,"Mood",true,2503,,,,,,,,,
5f1bea7d46be2a4101756238,forced_choice,284,381,"Recovery capacity",28,"Resilience",true,"Use of environment",27,"Resourcefulness",true,"Recovery capacity",28,"Resilience",true,"Use of environment",27,"Resourcefulness",true,1699,,,,,,,,,
5f1bea7d46be2a4101756238,forced_choice,285,381,"Schedule planning",44,"Time management",true,"Willpower",75,"Self-control",true,"Willpower",75,"Self-control",true,"Schedule planning",44,"Time management",true,1074,,,,,,,,,
5f1bea7d46be2a4101756238,forced_choice,286,381,"Social connections",9,"Relationships with peers",true,"Willpower",75,"Self-control",true,"Willpower",75,"Self-control",true,"Social connections",9,"Relationships with peers",true,1095,,,,,,,,,
5f1bea7d46be2a4101756238,forced_choice,287,381,"Requesting information",4,"Asking questions",true,"Use of environment",27,"Resourcefulness",true,"Use of environment",27,"Resourcefulness",true,"Requesting information",4,"Asking questions",true,1418,,,,,,,,,
5f1bea7d46be2a4101756238,forced_choice,288,381,"Handling disagreements",24,"Managing conflict",true,"Schedule planning",44,"Time management",true,"Handling disagreements",24,"Managing conflict",true,"Schedule planning",44,"Time management",true,2385,,,,,,,,,
5f1bea7d46be2a4101756238,forced_choice,289,381,"Personal security",21,"Sense of safety",true,"Bullying",23,"Bullying",false,"Personal security",21,"Sense of safety",true,"Bullying",23,"Bullying",false,1284,,,,,,,,,
5f1bea7d46be2a4101756238,forced_choice,290,381,"Personal appearance",82,"Self-care / hygiene",true,"Requesting information",4,"Asking questions",true,"Requesting information",4,"Asking questions",true,"Personal appearance",82,"Self-care / hygiene",true,1308,,,,,,,,,
5f1bea7d46be2a4101756238,forced_choice,291,381,"Recovery capacity",28,"Resilience",true,"Assisting others",63,"Helpfulness",true,"Recovery capacity",28,"Resilience",true,"Assisting others",63,"Helpfulness",true,1809,,,,,,,,,
5f1bea7d46be2a4101756238,forced_choice,292,381,"Recalling information",41,"Memory",true,"Social connections",9,"Relationships with peers",true,"Recalling information",41,"Memory",true,"Social connections",9,"Relationships with peers",true,1387,,,,,,,,,
5f1bea7d46be2a4101756238,forced_choice,293,381,"Motivation",54,"Motivation",false,"Assisting others",63,"Helpfulness",true,"Motivation",54,"Motivation",false,"Assisting others",63,"Helpfulness",true,1152,,,,,,,,,
5f1bea7d46be2a4101756238,forced_choice,294,381,"Social conformity",22,"Response to peer pressure",true,"Schedule planning",44,"Time management",true,"Schedule planning",44,"Time management",true,"Social conformity",22,"Response to peer pressure",true,1238,,,,,,,,,
5f1bea7d46be2a4101756238,forced_choice,295,381,"Personal appearance",82,"Self-care / hygiene",true,"Motivation",54,"Motivation",false,"Motivation",54,"Motivation",false,"Personal appearance",82,"Self-care / hygiene",true,1308,,,,,,,,,
5f1bea7d46be2a4101756238,forced_choice,296,381,"Managing emotions",29,"Managing emotions",false,"Recovery capacity",28,"Resilience",true,"Managing emotions",29,"Managing emotions",false,"Recovery capacity",28,"Resilience",true,1054,,,,,,,,,
5f1bea7d46be2a4101756238,forced_choice,297,381,"Activity level",73,"Activity level",false,"Starting projects",46,"Task initiation",true,"Activity level",73,"Activity level",false,"Starting projects",46,"Task initiation",true,1397,,,,,,,,,
5f1bea7d46be2a4101756238,forced_choice,298,381,"Responsibility",66,"Responsibility",false,"Use of environment",27,"Resourcefulness",true,"Use of environment",27,"Resourcefulness",true,"Responsibility",66,"Responsibility",false,1026,,,,,,,,,
5f1bea7d46be2a4101756238,forced_choice,299,381,"Social connections",9,"Relationships with peers",true,"Student engagement",89,"Class participation",true,"Student engagement",89,"Class participation",true,"Social connections",9,"Relationships with peers",true,1451,,,,,,,,,
5f1bea7d46be2a4101756238,forced_choice,300,381,"Organization",43,"Organization",false,"Student engagement",89,"Class participation",true,"Student engagement",89,"Class participation",true,"Organization",43,"Organization",false,906,,,,,,,,,
5f1bea7d46be2a4101756238,forced_choice,301,381,"Educational outcomes",88,"Academic performance",true,"Starting projects",46,"Task initiation",true,"Educational outcomes",88,"Academic performance",true,"Starting projects",46,"Task initiation",true,1422,,,,,,,,,
5f1bea7d46be2a4101756238,forced_choice,302,381,"Student engagement",89,"Class participation",true,"Skill development",38,"Learning new things",true,"Student engagement",89,"Class participation",true,"Skill development",38,"Learning new things",true,1352,,,,,,,,,
5f1bea7d46be2a4101756238,forced_choice,303,381,"Skill development",38,"Learning new things",true,"Use of environment",27,"Resourcefulness",true,"Skill development",38,"Learning new things",true,"Use of environment",27,"Resourcefulness",true,1312,,,,,,,,,
5f1bea7d46be2a4101756238,forced_choice,304,381,"Educational outcomes",88,"Academic performance",true,"Motivation",54,"Motivation",false,"Motivation",54,"Motivation",false,"Educational outcomes",88,"Academic performance",true,3384,,,,,,,,,
5f1bea7d46be2a4101756238,forced_choice,305,381,"Assisting others",63,"Helpfulness",true,"Activity level",73,"Activity level",false,"Activity level",73,"Activity level",false,"Assisting others",63,"Helpfulness",true,1877,,,,,,,,,
5f1bea7d46be2a4101756238,forced_choice,306,381,"Use of environment",27,"Resourcefulness",true,"Cognitive control",34,"Managing thoughts",true,"Cognitive control",34,"Managing thoughts",true,"Use of environment",27,"Resourcefulness",true,1295,,,,,,,,,
5f1bea7d46be2a4101756238,forced_choice,307,381,"Starting projects",46,"Task initiation",true,"Bullying",23,"Bullying",false,"Starting projects",46,"Task initiation",true,"Bullying",23,"Bullying",false,1231,,,,,,,,,
5f1bea7d46be2a4101756238,forced_choice,308,381,"Willpower",75,"Self-control",true,"Use of environment",27,"Resourcefulness",true,"Use of environment",27,"Resourcefulness",true,"Willpower",75,"Self-control",true,1316,,,,,,,,,
5f1bea7d46be2a4101756238,forced_choice,309,381,"Willpower",75,"Self-control",true,"Personal security",21,"Sense of safety",true,"Willpower",75,"Self-control",true,"Personal security",21,"Sense of safety",true,2107,,,,,,,,,
5f1bea7d46be2a4101756238,forced_choice,310,381,"Social connections",9,"Relationships with peers",true,"Motivation",54,"Motivation",false,"Motivation",54,"Motivation",false,"Social connections",9,"Relationships with peers",true,1947,,,,,,,,,
5f1bea7d46be2a4101756238,forced_choice,311,381,"Personal appearance",82,"Self-care / hygiene",true,"Use of environment",27,"Resourcefulness",true,"Use of environment",27,"Resourcefulness",true,"Personal appearance",82,"Self-care / hygiene",true,924,,,,,,,,,
5f1bea7d46be2a4101756238,forced_choice,312,381,"Recovery capacity",28,"Resilience",true,"Recalling information",41,"Memory",true,"Recalling information",41,"Memory",true,"Recovery capacity",28,"Resilience",true,1241,,,,,,,,,
5f1bea7d46be2a4101756238,forced_choice,313,381,"Emotional state",32,"Mood",true,"Assisting others",63,"Helpfulness",true,"Emotional state",32,"Mood",true,"Assisting others",63,"Helpfulness",true,1159,,,,,,,,,
5f1bea7d46be2a4101756238,forced_choice,314,381,"Educational outcomes",88,"Academic performance",true,"Use of environment",27,"Resourcefulness",true,"Educational outcomes",88,"Academic performance",true,"Use of environment",27,"Resourcefulness",true,2003,,,,,,,,,
5f1bea7d46be2a4101756238,forced_choice,315,381,"Bullying",23,"Bullying",false,"Recovery capacity",28,"Resilience",true,"Recovery capacity",28,"Resilience",true,"Bullying",23,"Bullying",false,1068,,,,,,,,,
5f1bea7d46be2a4101756238,forced_choice,316,381,"Starting projects",46,"Task initiation",true,"Skill development",38,"Learning new things",true,"Skill development",38,"Learning new things",true,"Starting projects",46,"Task initiation",true,1011,,,,,,,,,
5f1bea7d46be2a4101756238,forced_choice,317,381,"Assisting others",63,"Helpfulness",true,"Handling disagreements",24,"Managing conflict",true,"Assisting others",63,"Helpfulness",true,"Handling disagreements",24,"Managing conflict",true,2279,,,,,,,,,
5f1bea7d46be2a4101756238,forced_choice,318,381,"Messaging",1,"Expressive communication",true,"Cognitive control",34,"Managing thoughts",true,"Cognitive control",34,"Managing thoughts",true,"Messaging",1,"Expressive communication",true,850,,,,,,,,,
5f1bea7d46be2a4101756238,forced_choice,319,381,"Responsibility",66,"Responsibility",false,"Motivation",54,"Motivation",false,"Motivation",54,"Motivation",false,"Responsibility",66,"Responsibility",false,2235,,,,,,,,,
5f1bea7d46be2a4101756238,forced_choice,320,381,"Bullying",23,"Bullying",false,"Managing emotions",29,"Managing emotions",false,"Managing emotions",29,"Managing emotions",false,"Bullying",23,"Bullying",false,1498,,,,,,,,,
5f1bea7d46be2a4101756238,forced_choice,321,381,"Exhaustion",85,"Sleep and fatigue",true,"Personal appearance",82,"Self-care / hygiene",true,"Personal appearance",82,"Self-care / hygiene",true,"Exhaustion",85,"Sleep and fatigue",true,1475,,,,,,,,,
5f1bea7d46be2a4101756238,forced_choice,322,381,"Personal security",21,"Sense of safety",true,"Managing emotions",29,"Managing emotions",false,"Managing emotions",29,"Managing emotions",false,"Personal security",21,"Sense of safety",true,1162,,,,,,,,,
5f1bea7d46be2a4101756238,forced_choice,323,381,"Motivation",54,"Motivation",false,"Personal security",21,"Sense of safety",true,"Motivation",54,"Motivation",false,"Personal security",21,"Sense of safety",true,1146,,,,,,,,,
5f1bea7d46be2a4101756238,forced_choice,324,381,"Personal appearance",82,"Self-care / hygiene",true,"Handling disagreements",24,"Managing conflict",true,"Handling disagreements",24,"Managing conflict",true,"Personal appearance",82,"Self-care / hygiene",true,1562,,,,,,,,,
