user_id,task,trial_index,subset_index,left_term,left_construct_id,left_canonical,left_is_synonym,right_term,right_construct_id,right_canonical,right_is_synonym,chosen_term,chosen_construct_id,chosen_canonical,chosen_is_synonym,unchosen_term,unchosen_construct_id,unchosen_canonical,unchosen_is_synonym,response_time,correct_word,chosen_word,passed,grade_levels,special_needs,school_type,experience,class_size,country
64c3c4822b7f1c2b20dff932,demographics,,,,,,,,,,,,,,,,,,,,,,,"high_school","no","public","2-5",">25","South Africa"
64c3c4822b7f1c2b20dff932,forced_choice,0,39,"Compassion",64,"Kindness and caring",true,"Retaining information",41,"Memory",true,"Retaining information",41,"Memory",true,"Compassion",64,"Kindness and caring",true,54326,,,,,,,,,
64c3c4822b7f1c2b20dff932,forced_choice,1,39,"Social awareness",16,"Social awareness",false,"Sleep and fatigue",85,"Sleep and fatigue",false,"Social awareness",16,"Social awareness",false,"Sleep and fatigue",85,"Sleep and fatigue",false,7065,,,,,,,,,
64c3c4822b7f1c2b20dff932,forced_choice,2,39,"Retaining information",41,"Memory",true,"Frustration tolerance",62,"Patience",true,"Retaining information",41,"Memory",true,"Frustration tolerance",62,"Patience",true,10296,,,,,,,,,
64c3c4822b7f1c2b20dff932,forced_choice,3,39,"Handling disagreements",24,"Managing conflict",true,"Openness",58,"Openness",false,"Handling disagreements",24,"Managing conflict",true,"Openness",58,"Openness",false,18339,,,,,,,,,
64c3c4822b7f1c2b20dff932,forced_choice,4,39,"Understanding text",52,"Reading",true,"Feeling accepted",20,"Social belonging",true,"Understanding text",52,"Reading",true,"Feeling accepted",20,"Social belonging",true,4050,,,,,,,,,
64c3c4822b7f1c2b20dff932,forced_choice,5,39,"Moral",65,"Integrity and honesty",true,"Displaying feelings",30,"Emotional expression",true,"Moral",65,"Integrity and honesty",true,"Displaying feelings",30,"Emotional expression",true,10433,,,,,,,,,
64c3c4822b7f1c2b20dff932,forced_choice,6,39,"Sleep and fatigue",85,"Sleep and fatigue",false,"Time management",44,"Time management",false,"Time management",44,"Time management",false,"Sleep and fatigue",85,"Sleep and fatigue",false,3502,,,,,,,,,
64c3c4822b7f1c2b20dff932,forced_choice,7,39,"Time management",44,"Time management",false,"Social conformity",22,"Response to peer pressure",true,"Time management",44,"Time management",false,"Social conformity",22,"Response to peer pressure",true,12700,,,,,,,,,
64c3c4822b7f1c2b20dff932,forced_choice,8,39,"Confidence in groups",13,"Comfort in social situations",true,"Sleep and fatigue",85,"Sleep and fatigue",false,"Confidence in groups",13,"Comfort in social situations",true,"Sleep and fatigue",85,"Sleep and fatigue",false,5828,,,,,,,,,
64c3c4822b7f1c2b20dff932,forced_choice,9,39,"Handling disagreements",24,"Managing conflict",true,"Frustration tolerance",62,"Patience",true,"Handling disagreements",24,"Managing conflict",true,"Frustration tolerance",62,"Patience",true,5195,,,,,,,,,
64c3c4822b7f1c2b20dff932,forced_choice,10,39,"Strategic preparation",42,"Planning",true,"Displaying feelings",30,"Emotional expression",true,"Strategic preparation",42,"Planning",true,"Displaying feelings",30,"Emotional expression",true,11630,,,,,,,,,
64c3c4822b7f1c2b20dff932,forced_choice,11,39,"Mental regulation",34,"Managing thoughts",true,"Social awareness",16,"Social awareness",false,"Social awareness",16,"Social awareness",false,"Mental regulation",34,"Managing thoughts",true,15717,,,,,,,,,
64c3c4822b7f1c2b20dff932,forced_choice,12,39,"Feeling accepted",20,"Social belonging",true,"Frustration tolerance",62,"Patience",true,"Feeling accepted",20,"Social belonging",true,"Frustration tolerance",62,"Patience",true,16165,,,,,,,,,
64c3c4822b7f1c2b20dff932,forced_choice,13,39,"Frustration tolerance",62,"Patience",true,"Mental regulation",34,"Managing thoughts",true,"Mental regulation",34,"Managing thoughts",true,"Frustration tolerance",62,"Patience",true,6999,,,,,,,,,
64c3c4822b7f1c2b20dff932,forced_choice,14,39,"Decision-making",36,"Decision-making",false,"Personal observation",77,"Self-monitoring",true,"Decision-making",36,"Decision-making",false,"Personal observation",77,"Self-monitoring",true,13203,,,,,,,,,
64c3c4822b7f1c2b20dff932,forced_choice,15,39,"Supportive",63,"Helpfulness",true,"Rate of thought processing",48,"Thinking speed",true,"Rate of thought processing",48,"Thinking speed",true,"Supportive",63,"Helpfulness",true,11731,,,,,,,,,
64c3c4822b7f1c2b20dff932,forced_choice,16,39,"Displaying feelings",30,"Emotional expression",true,"Personal observation",77,"Self-monitoring",true,"Personal observation",77,"Self-monitoring",true,"Displaying feelings",30,"Emotional expression",true,10755,,,,,,,,,
64c3c4822b7f1c2b20dff932,forced_choice,17,39,"Strategic preparation",42,"Planning",true,"Personal security",21,"Sense of safety",true,"Strategic preparation",42,"Planning",true,"Personal security",21,"Sense of safety",true,9488,,,,,,,,,
64c3c4822b7f1c2b20dff932,forced_choice,18,39,"Social awareness",16,"Social awareness",false,"Supportive",63,"Helpfulness",true,"Supportive",63,"Helpfulness",true,"Social awareness",16,"Social awareness",false,6453,,,,,,,,,
64c3c4822b7f1c2b20dff932,forced_choice,19,39,"Time management",44,"Time management",false,"Initiative",69,"Initiative",false,"Time management",44,"Time management",false,"Initiative",69,"Initiative",false,1480,,,,,,,,,
64c3c4822b7f1c2b20dff932,forced_choice,20,39,"Mental regulation",34,"Managing thoughts",true,"Rate of thought processing",48,"Thinking speed",true,"Rate of thought processing",48,"Thinking speed",true,"Mental regulation",34,"Managing thoughts",true,2400,,,,,,,,,
64c3c4822b7f1c2b20dff932,forced_choice,21,39,"Drug intake",87,"Substance use",true,"Rate of thought processing",48,"Thinking speed",true,"Rate of thought processing",48,"Thinking speed",true,"Drug intake",87,"Substance use",true,3544,,,,,,,,,
64c3c4822b7f1c2b20dff932,forced_choice,22,39,"Handling disagreements",24,"Managing conflict",true,"Resilience",28,"Resilience",false,"Handling disagreements",24,"Managing conflict",true,"Resilience",28,"Resilience",false,3120,,,,,,,,,
64c3c4822b7f1c2b20dff932,forced_choice,23,39,"Decision-making",36,"Decision-making",false,"Expectations",72,"Future outlook",true,"Decision-making",36,"Decision-making",false,"Expectations",72,"Future outlook",true,1786,,,,,,,,,
64c3c4822b7f1c2b20dff932,forced_choice,24,39,"Displaying feelings",30,"Emotional expression",true,"Openness",58,"Openness",false,"Displaying feelings",30,"Emotional expression",true,"Openness",58,"Openness",false,1748,,,,,,,,,
64c3c4822b7f1c2b20dff932,forced_choice,25,39,"Retaining information",41,"Memory",true,"Mental regulation",34,"Managing thoughts",true,"Retaining information",41,"Memory",true,"Mental regulation",34,"Managing thoughts",true,1312,,,,,,,,,
64c3c4822b7f1c2b20dff932,forced_choice,26,39,"Understanding text",52,"Reading",true,"Social awareness",16,"Social awareness",false,"Understanding text",52,"Reading",true,"Social awareness",16,"Social awareness",false,1434,,,,,,,,,
64c3c4822b7f1c2b20dff932,forced_choice,27,39,"Time management",44,"Time management",false,"Personal security",21,"Sense of safety",true,"Time management",44,"Time management",false,"Personal security",21,"Sense of safety",true,962,,,,,,,,,
64c3c4822b7f1c2b20dff932,forced_choice,28,39,"Decision-making",36,"Decision-making",false,"Rate of thought processing",48,"Thinking speed",true,"Rate of thought processing",48,"Thinking speed",true,"Decision-making",36,"Decision-making",false,4954,,,,,,,,,
64c3c4822b7f1c2b20dff932,forced_choice,29,39,"Personal security",21,"Sense of safety",true,"Initiative",69,"Initiative",false,"Initiative",69,"Initiative",false,"Personal security",21,"Sense of safety",true,1958,,,,,,,,,
64c3c4822b7f1c2b20dff932,forced_choice,30,39,"Initiative",69,"Initiative",false,"Confidence in groups",13,"Comfort in social situations",true,"Confidence in groups",13,"Comfort in social situations",true,"Initiative",69,"Initiative",false,8171,,,,,,,,,
64c3c4822b7f1c2b20dff932,forced_choice,31,39,"Rate of thought processing",48,"Thinking speed",true,"Confidence in groups",13,"Comfort in social situations",true,"Rate of thought processing",48,"Thinking speed",true,"Confidence in groups",13,"Comfort in social situations",true,19352,,,,,,,,,
64c3c4822b7f1c2b20dff932,forced_choice,32,39,"Personal security",21,"Sense of safety",true,"Frustration tolerance",62,"Patience",true,"Frustration tolerance",62,"Patience",true,"Personal security",21,"Sense of safety",true,4990,,,,,,,,,
64c3c4822b7f1c2b20dff932,forced_choice,33,39,"Initiative",69,"Initiative",false,"Moral",65,"Integrity and honesty",true,"Moral",65,"Integrity and honesty",true,"Initiative",69,"Initiative",false,1430,,,,,,,,,
64c3c4822b7f1c2b20dff932,forced_choice,34,39,"Openness",58,"Openness",false,"Social conformity",22,"Response to peer pressure",true,"Social conformity",22,"Response to peer pressure",true,"Openness",58,"Openness",false,2465,,,,,,,,,
64c3c4822b7f1c2b20dff932,forced_choice,35,39,"Understanding text",52,"Reading",true,"Confidence in groups",13,"Comfort in social situations",true,"Understanding text",52,"Reading",true,"Confidence in groups",13,"Comfort in social situations",true,1235,,,,,,,,,
64c3c4822b7f1c2b20dff932,forced_choice,36,39,"Feeling accepted",20,"Social belonging",true,"Compassion",64,"Kindness and caring",true,"Compassion",64,"Kindness and caring",true,"Feeling accepted",20,"Social belonging",true,12400,,,,,,,,,
64c3c4822b7f1c2b20dff932,forced_choice,37,39,"Sleep and fatigue",85,"Sleep and fatigue",false,"Initiative",69,"Initiative",false,"Initiative",69,"Initiative",false,"Sleep and fatigue",85,"Sleep and fatigue",false,1713,,,,,,,,,
64c3c4822b7f1c2b20dff932,forced_choice,38,39,"Social conformity",22,"Response to peer pressure",true,"Compassion",64,"Kindness and caring",true,"Compassion",64,"Kindness and caring",true,"Social conformity",22,"Response to peer pressure",true,3132,,,,,,,,,
64c3c4822b7f1c2b20dff932,forced_choice,39,39,"Resilience",28,"Resilience",false,"Initiative",69,"Initiative",false,"Resilience",28,"Resilience",false,"Initiative",69,"Initiative",false,1953,,,,,,,,,
64c3c4822b7f1c2b20dff932,forced_choice,40,39,"Feeling accepted",20,"Social belonging",true,"Mental regulation",34,"Managing thoughts",true,"Mental regulation",34,"Managing thoughts",true,"Feeling accepted",20,"Social belonging",true,2243,,,,,,,,,
64c3c4822b7f1c2b20dff932,forced_choice,41,39,"Drug intake",87,"Substance use",true,"Feeling accepted",20,"Social belonging",true,"Feeling accepted",20,"Social belonging",true,"Drug intake",87,"Substance use",true,2413,,,,,,,,,
64c3c4822b7f1c2b20dff932,forced_choice,42,39,"Displaying feelings",30,"Emotional expression",true,"Understanding text",52,"Reading",true,"Displaying feelings",30,"Emotional expression",true,"Understanding text",52,"Reading",true,1189,,,,,,,,,
64c3c4822b7f1c2b20dff932,forced_choice,43,39,"Displaying feelings",30,"Emotional expression",true,"Sleep and fatigue",85,"Sleep and fatigue",false,"Displaying feelings",30,"Emotional expression",true,"Sleep and fatigue",85,"Sleep and fatigue",false,2915,,,,,,,,,
64c3c4822b7f1c2b20dff932,forced_choice,44,39,"Strategic preparation",42,"Planning",true,"Initiative",69,"Initiative",false,"Strategic preparation",42,"Planning",true,"Initiative",69,"Initiative",false,1494,,,,,,,,,
64c3c4822b7f1c2b20dff932,forced_choice,45,39,"Understanding text",52,"Reading",true,"Drug intake",87,"Substance use",true,"Understanding text",52,"Reading",true,"Drug intake",87,"Substance use",true,1202,,,,,,,,,
64c3c4822b7f1c2b20dff932,forced_choice,46,39,"Moral",65,"Integrity and honesty",true,"Mental regulation",34,"Managing thoughts",true,"Moral",65,"Integrity and honesty",true,"Mental regulation",34,"Managing thoughts",true,1077,,,,,,,,,
64c3c4822b7f1c2b20dff932,forced_choice,47,39,"Initiative",69,"Initiative",false,"Handling disagreements",24,"Managing conflict",true,"Handling disagreements",24,"Managing conflict",true,"Initiative",69,"Initiative",false,1170,,,,,,,,,
64c3c4822b7f1c2b20dff932,forced_choice,48,39,"Sleep and fatigue",85,"Sleep and fatigue",false,"Resilience",28,"Resilience",false,"Resilience",28,"Resilience",false,"Sleep and fatigue",85,"Sleep and fatigue",false,1560,,,,,,,,,
64c3c4822b7f1c2b20dff932,forced_choice,49,39,"Sleep and fatigue",85,"Sleep and fatigue",false,"Personal security",21,"Sense of safety",true,"Personal security",21,"Sense of safety",true,"Sleep and fatigue",85,"Sleep and fatigue",false,18730,,,,,,,,,
64c3c4822b7f1c2b20dff932,forced_choice,50,39,"Time management",44,"Time management",false,"Drug intake",87,"Substance use",true,"Time management",44,"Time management",false,"Drug intake",87,"Substance use",true,901,,,,,,,,,
64c3c4822b7f1c2b20dff932,forced_choice,51,39,"Expectations",72,"Future outlook",true,"Time management",44,"Time management",false,"Time management",44,"Time management",false,"Expectations",72,"Future outlook",true,1334,,,,,,,,,
64c3c4822b7f1c2b20dff932,forced_choice,52,39,"Social awareness",16,"Social awareness",false,"Initiative",69,"Initiative",false,"Social awareness",16,"Social awareness",false,"Initiative",69,"Initiative",false,2113,,,,,,,,,
64c3c4822b7f1c2b20dff932,forced_choice,53,39,"Expectations",72,"Future outlook",true,"Social awareness",16,"Social awareness",false,"Social awareness",16,"Social awareness",false,"Expectations",72,"Future outlook",true,13738,,,,,,,,,
64c3c4822b7f1c2b20dff932,forced_choice,54,39,"Social awareness",16,"Social awareness",false,"Frustration tolerance",62,"Patience",true,"Social awareness",16,"Social awareness",false,"Frustration tolerance",62,"Patience",true,4321,,,,,,,,,
64c3c4822b7f1c2b20dff932,attention_check,55,,,,,,,,,,,,,,,,,,10292,"Playing with others","Playing with others",true,,,,,,
64c3c4822b7f1c2b20dff932,forced_choice,55,39,"Personal security",21,"Sense of safety",true,"Assertiveness",70,"Assertiveness",false,"Assertiveness",70,"Assertiveness",false,"Personal security",21,"Sense of safety",true,10079,,,,,,,,,
64c3c4822b7f1c2b20dff932,forced_choice,56,39,"Sleep and fatigue",85,"Sleep and fatigue",false,"Moral",65,"Integrity and honesty",true,"Moral",65,"Integrity and honesty",true,"Sleep and fatigue",85,"Sleep and fatigue",false,1685,,,,,,,,,
64c3c4822b7f1c2b20dff932,forced_choice,57,39,"Displaying feelings",30,"Emotional expression",true,"Retaining information",41,"Memory",true,"Retaining information",41,"Memory",true,"Displaying feelings",30,"Emotional expression",true,6446,,,,,,,,,
64c3c4822b7f1c2b20dff932,forced_choice,58,39,"Openness",58,"Openness",false,"Confidence in groups",13,"Comfort in social situations",true,"Confidence in groups",13,"Comfort in social situations",true,"Openness",58,"Openness",false,31635,,,,,,,,,
64c3c4822b7f1c2b20dff932,forced_choice,59,39,"Moral",65,"Integrity and honesty",true,"Personal observation",77,"Self-monitoring",true,"Moral",65,"Integrity and honesty",true,"Personal observation",77,"Self-monitoring",true,3264,,,,,,,,,
64c3c4822b7f1c2b20dff932,forced_choice,60,39,"Expectations",72,"Future outlook",true,"Handling disagreements",24,"Managing conflict",true,"Handling disagreements",24,"Managing conflict",true,"Expectations",72,"Future outlook",true,1890,,,,,,,,,
64c3c4822b7f1c2b20dff932,forced_choice,61,39,"Expectations",72,"Future outlook",true,"Assertiveness",70,"Assertiveness",false,"Assertiveness",70,"Assertiveness",false,"Expectations",72,"Future outlook",true,1724,,,,,,,,,
64c3c4822b7f1c2b20dff932,forced_choice,62,39,"Time management",44,"Time management",false,"Strategic preparation",42,"Planning",true,"Time management",44,"Time management",false,"Strategic preparation",42,"Planning",true,2371,,,,,,,,,
64c3c4822b7f1c2b20dff932,forced_choice,63,39,"Openness",58,"Openness",false,"Time management",44,"Time management",false,"Time management",44,"Time management",false,"Openness",58,"Openness",false,3625,,,,,,,,,
64c3c4822b7f1c2b20dff932,forced_choice,64,39,"Rate of thought processing",48,"Thinking speed",true,"Strategic preparation",42,"Planning",true,"Rate of thought processing",48,"Thinking speed",true,"Strategic preparation",42,"Planning",true,2419,,,,,,,,,
64c3c4822b7f1c2b20dff932,forced_choice,65,39,"Time management",44,"Time management",false,"Moral",65,"Integrity and honesty",true,"Moral",65,"Integrity and honesty",true,"Time management",44,"Time management",false,3300,,,,,,,,,
64c3c4822b7f1c2b20dff932,forced_choice,66,39,"Openness",58,"Openness",false,"Personal observation",77,"Self-monitoring",true,"Personal observation",77,"Self-monitoring",true,"Openness",58,"Openness",false,7644,,,,,,,,,
64c3c4822b7f1c2b20dff932,forced_choice,67,39,"Social conformity",22,"Response to peer pressure",true,"Frustration tolerance",62,"Patience",true,"Social conformity",22,"Response to peer pressure",true,"Frustration tolerance",62,"Patience",true,20791,,,,,,,,,
64c3c4822b7f1c2b20dff932,forced_choice,68,39,"Expectations",72,"Future outlook",true,"Personal security",21,"Sense of safety",true,"Personal security",21,"Sense of safety",true,"Expectations",72,"Future outlook",true,14995,,,,,,,,,
64c3c4822b7f1c2b20dff932,forced_choice,69,39,"Social conformity",22,"Response to peer pressure",true,"Mental regulation",34,"Managing thoughts",true,"Social conformity",22,"Response to peer pressure",true,"Mental regulation",34,"Managing thoughts",true,4771,,,,,,,,,
64c3c4822b7f1c2b20dff932,forced_choice,70,39,"Personal observation",77,"Self-monitoring",true,"Retaining information",41,"Memory",true,"Personal observation",77,"Self-monitoring",true,"Retaining information",41,"Memory",true,4421,,,,,,,,,
64c3c4822b7f1c2b20dff932,forced_choice,71,39,"Supportive",63,"Helpfulness",true,"Moral",65,"Integrity and honesty",true,"Moral",65,"Integrity and honesty",true,"Supportive",63,"Helpfulness",true,1973,,,,,,,,,
64c3c4822b7f1c2b20dff932,forced_choice,72,39,"Understanding text",52,"Reading",true,"Retaining information",41,"Memory",true,"Understanding text",52,"Reading",true,"Retaining information",41,"Memory",true,3198,,,,,,,,,
64c3c4822b7f1c2b20dff932,forced_choice,73,39,"Displaying feelings",30,"Emotional expression",true,"Personal security",21,"Sense of safety",true,"Displaying feelings",30,"Emotional expression",true,"Personal security",21,"Sense of safety",true,4233,,,,,,,,,
64c3c4822b7f1c2b20dff932,forced_choice,74,39,"Assertiveness",70,"Assertiveness",false,"Drug intake",87,"Substance use",true,"Assertiveness",70,"Assertiveness",false,"Drug intake",87,"Substance use",true,5520,,,,,,,,,
64c3c4822b7f1c2b20dff932,forced_choice,75,39,"Assertiveness",70,"Assertiveness",false,"Time management",44,"Time management",false,"Assertiveness",70,"Assertiveness",false,"Time management",44,"Time management",false,2897,,,,,,,,,
64c3c4822b7f1c2b20dff932,forced_choice,76,39,"Strategic preparation",42,"Planning",true,"Social conformity",22,"Response to peer pressure",true,"Strategic preparation",42,"Planning",true,"Social conformity",22,"Response to peer pressure",true,4313,,,,,,,,,
64c3c4822b7f1c2b20dff932,forced_choice,77,39,"Understanding text",52,"Reading",true,"Sleep and fatigue",85,"Sleep and fatigue",false,"Understanding text",52,"Reading",true,"Sleep and fatigue",85,"Sleep and fatigue",false,4501,,,,,,,,,
64c3c4822b7f1c2b20dff932,forced_choice,78,39,"Decision-making",36,"Decision-making",false,"Frustration tolerance",62,"Patience",true,"Decision-making",36,"Decision-making",false,"Frustration tolerance",62,"Patience",true,8813,,,,,,,,,
64c3c4822b7f1c2b20dff932,forced_choice,79,39,"Supportive",63,"Helpfulness",true,"Expectations",72,"Future outlook",true,"Supportive",63,"Helpfulness",true,"Expectations",72,"Future outlook",true,5133,,,,,,,,,
64c3c4822b7f1c2b20dff932,forced_choice,80,39,"Understanding text",52,"Reading",true,"Compassion",64,"Kindness and caring",true,"Understanding text",52,"Reading",true,"Compassion",64,"Kindness and caring",true,3561,,,,,,,,,
64c3c4822b7f1c2b20dff932,forced_choice,81,39,"Drug intake",87,"Substance use",true,"Confidence in groups",13,"Comfort in social situations",true,"Confidence in groups",13,"Comfort in social situations",true,"Drug intake",87,"Substance use",true,3619,,,,,,,,,
64c3c4822b7f1c2b20dff932,forced_choice,82,39,"Personal observation",77,"Self-monitoring",true,"Time management",44,"Time management",false,"Time management",44,"Time management",false,"Personal observation",77,"Self-monitoring",true,3293,,,,,,,,,
64c3c4822b7f1c2b20dff932,forced_choice,83,39,"Frustration tolerance",62,"Patience",true,"Confidence in groups",13,"Comfort in social situations",true,"Confidence in groups",13,"Comfort in social situations",true,"Frustration tolerance",62,"Patience",true,2497,,,,,,,,,
64c3c4822b7f1c2b20dff932,forced_choice,84,39,"Sleep and fatigue",85,"Sleep and fatigue",false,"Strategic preparation",42,"Planning",true,"Strategic preparation",42,"Planning",true,"Sleep and fatigue",85,"Sleep and fatigue",false,1968,,,,,,,,,
64c3c4822b7f1c2b20dff932,forced_choice,85,39,"Mental regulation",34,"Managing thoughts",true,"Personal security",21,"Sense of safety",true,"Personal security",21,"Sense of safety",true,"Mental regulation",34,"Managing thoughts",true,2698,,,,,,,,,
64c3c4822b7f1c2b20dff932,forced_choice,86,39,"Confidence in groups",13,"Comfort in social situations",true,"Social conformity",22,"Response to peer pressure",true,"Confidence in groups",13,"Comfort in social situations",true,"Social conformity",22,"Response to peer pressure",true,3150,,,,,,,,,
64c3c4822b7f1c2b20dff932,forced_choice,87,39,"Supportive",63,"Helpfulness",true,"Handling disagreements",24,"Managing conflict",true,"Supportive",63,"Helpfulness",true,"Handling disagreements",24,"Managing conflict",true,4680,,,,,,,,,
64c3c4822b7f1c2b20dff932,forced_choice,88,39,"Expectations",72,"Future outlook",true,"Initiative",69,"Initiative",false,"Initiative",69,"Initiative",false,"Expectations",72,"Future outlook",true,1752,,,,,,,,,
64c3c4822b7f1c2b20dff932,forced_choice,89,39,"Social conformity",22,"Response to peer pressure",true,"Personal observation",77,"Self-monitoring",true,"Personal observation",77,"Self-monitoring",true,"Social conformity",22,"Response to peer pressure",true,2958,,,,,,,,,
64c3c4822b7f1c2b20dff932,forced_choice,90,39,"Social awareness",16,"Social awareness",false,"Compassion",64,"Kindness and caring",true,"Social awareness",16,"Social awareness",false,"Compassion",64,"Kindness and caring",true,2206,,,,,,,,,
64c3c4822b7f1c2b20dff932,forced_choice,91,39,"Social conformity",22,"Response to peer pressure",true,"Initiative",69,"Initiative",false,"Initiative",69,"Initiative",false,"Social conformity",22,"Response to peer pressure",true,2164,,,,,,,,,
64c3c4822b7f1c2b20dff932,forced_choice,92,39,"Rate of thought processing",48,"Thinking speed",true,"Understanding text",52,"Reading",true,"Rate of thought processing",48,"Thinking speed",true,"Understanding text",52,"Reading",true,2952,,,,,,,,,
64c3c4822b7f1c2b20dff932,forced_choice,93,39,"Frustration tolerance",62,"Patience",true,"Personal observation",77,"Self-monitoring",true,"Personal observation",77,"Self-monitoring",true,"Frustration tolerance",62,"Patience",true,2060,,,,,,,,,
64c3c4822b7f1c2b20dff932,forced_choice,94,39,"Frustration tolerance",62,"Patience",true,"Compassion",64,"Kindness and caring",true,"Compassion",64,"Kindness and caring",true,"Frustration tolerance",62,"Patience",true,3219,,,,,,,,,
64c3c4822b7f1c2b20dff932,forced_choice,95,39,"Expectations",72,"Future outlook",true,"Feeling accepted",20,"Social belonging",true,"Expectations",72,"Future outlook",true,"Feeling accepted",20,"Social belonging",true,5034,,,,,,,,,
64c3c4822b7f1c2b20dff932,forced_choice,96,39,"Feeling accepted",20,"Social belonging",true,"Social conformity",22,"Response to peer pressure",true,"Social conformity",22,"Response to peer pressure",true,"Feeling accepted",20,"Social belonging",true,1882,,,,,,,,,
64c3c4822b7f1c2b20dff932,forced_choice,97,39,"Strategic preparation",42,"Planning",true,"Mental regulation",34,"Managing thoughts",true,"Strategic preparation",42,"Planning",true,"Mental regulation",34,"Managing thoughts",true,2132,,,,,,,,,
64c3c4822b7f1c2b20dff932,forced_choice,98,39,"Supportive",63,"Helpfulness",true,"Decision-making",36,"Decision-making",false,"Decision-making",36,"Decision-making",false,"Supportive",63,"Helpfulness",true,1466,,,,,,,,,
64c3c4822b7f1c2b20dff932,forced_choice,99,39,"Drug intake",87,"Substance use",true,"Social awareness",16,"Social awareness",false,"Social awareness",16,"Social awareness",false,"Drug intake",87,"Substance use",true,1413,,,,,,,,,
64c3c4822b7f1c2b20dff932,forced_choice,100,39,"Resilience",28,"Resilience",false,"Feeling accepted",20,"Social belonging",true,"Resilience",28,"Resilience",false,"Feeling accepted",20,"Social belonging",true,2046,,,,,,,,,
64c3c4822b7f1c2b20dff932,forced_choice,101,39,"Frustration tolerance",62,"Patience",true,"Expectations",72,"Future outlook",true,"Frustration tolerance",62,"Patience",true,"Expectations",72,"Future outlook",true,3583,,,,,,,,,
64c3c4822b7f1c2b20dff932,forced_choice,102,39,"Handling disagreements",24,"Managing conflict",true,"Drug intake",87,"Substance use",true,"Handling disagreements",24,"Managing conflict",true,"Drug intake",87,"Substance use",true,4580,,,,,,,,,
64c3c4822b7f1c2b20dff932,forced_choice,103,39,"Compassion",64,"Kindness and caring",true,"Personal security",21,"Sense of safety",true,"Compassion",64,"Kindness and caring",true,"Personal security",21,"Sense of safety",true,7069,,,,,,,,,
64c3c4822b7f1c2b20dff932,forced_choice,104,39,"Confidence in groups",13,"Comfort in social situations",true,"Retaining information",41,"Memory",true,"Confidence in groups",13,"Comfort in social situations",true,"Retaining information",41,"Memory",true,2380,,,,,,,,,
64c3c4822b7f1c2b20dff932,forced_choice,105,39,"Mental regulation",34,"Managing thoughts",true,"Time management",44,"Time management",false,"Time management",44,"Time management",false,"Mental regulation",34,"Managing thoughts",true,1287,,,,,,,,,
64c3c4822b7f1c2b20dff932,forced_choice,106,39,"Handling disagreements",24,"Managing conflict",true,"Displaying feelings",30,"Emotional expression",true,"Handling disagreements",24,"Managing conflict",true,"Displaying feelings",30,"Emotional expression",true,2451,,,,,,,,,
64c3c4822b7f1c2b20dff932,forced_choice,107,39,"Drug intake",87,"Substance use",true,"Decision-making",36,"Decision-making",false,"Decision-making",36,"Decision-making",false,"Drug intake",87,"Substance use",true,1397,,,,,,,,,
64c3c4822b7f1c2b20dff932,forced_choice,108,39,"Social awareness",16,"Social awareness",false,"Time management",44,"Time management",false,"Time management",44,"Time management",false,"Social awareness",16,"Social awareness",false,1963,,,,,,,,,
64c3c4822b7f1c2b20dff932,forced_choice,109,39,"Drug intake",87,"Substance use",true,"Openness",58,"Openness",false,"Openness",58,"Openness",false,"Drug intake",87,"Substance use",true,2280,,,,,,,,,
64c3c4822b7f1c2b20dff932,attention_check,111,,,,,,,,,,,,,,,,,,5902,"Paying attention","Paying attention",true,,,,,,
64c3c4822b7f1c2b20dff932,forced_choice,110,39,"Confidence in groups",13,"Comfort in social situations",true,"Personal security",21,"Sense of safety",true,"Confidence in groups",13,"Comfort in social situations",true,"Personal security",21,"Sense of safety",true,4478,,,,,,,,,
64c3c4822b7f1c2b20dff932,forced_choice,111,39,"Displaying feelings",30,"Emotional expression",true,"Decision-making",36,"Decision-making",false,"Decision-making",36,"Decision-making",false,"Displaying feelings",30,"Emotional expression",true,1666,,,,,,,,,
64c3c4822b7f1c2b20dff932,forced_choice,112,39,"Openness",58,"Openness",false,"Compassion",64,"Kindness and caring",true,"Compassion",64,"Kindness and caring",true,"Openness",58,"Openness",false,2098,,,,,,,,,
64c3c4822b7f1c2b20dff932,forced_choice,113,39,"Initiative",69,"Initiative",false,"Assertiveness",70,"Assertiveness",false,"Initiative",69,"Initiative",false,"Assertiveness",70,"Assertiveness",false,1137,,,,,,,,,
64c3c4822b7f1c2b20dff932,forced_choice,114,39,"Drug intake",87,"Substance use",true,"Moral",65,"Integrity and honesty",true,"Moral",65,"Integrity and honesty",true,"Drug intake",87,"Substance use",true,1249,,,,,,,,,
64c3c4822b7f1c2b20dff932,forced_choice,115,39,"Personal observation",77,"Self-monitoring",true,"Rate of thought processing",48,"Thinking speed",true,"Rate of thought processing",48,"Thinking speed",true,"Personal observation",77,"Self-monitoring",true,3077,,,,,,,,,
64c3c4822b7f1c2b20dff932,forced_choice,116,39,"Moral",65,"Integrity and honesty",true,"Openness",58,"Openness",false,"Moral",65,"Integrity and honesty",true,"Openness",58,"Openness",false,1452,,,,,,,,,
64c3c4822b7f1c2b20dff932,forced_choice,117,39,"Confidence in groups",13,"Comfort in social situations",true,"Personal observation",77,"Self-monitoring",true,"Confidence in groups",13,"Comfort in social situations",true,"Personal observation",77,"Self-monitoring",true,1396,,,,,,,,,
64c3c4822b7f1c2b20dff932,forced_choice,118,39,"Social conformity",22,"Response to peer pressure",true,"Understanding text",52,"Reading",true,"Understanding text",52,"Reading",true,"Social conformity",22,"Response to peer pressure",true,2641,,,,,,,,,
64c3c4822b7f1c2b20dff932,forced_choice,119,39,"Personal security",21,"Sense of safety",true,"Decision-making",36,"Decision-making",false,"Decision-making",36,"Decision-making",false,"Personal security",21,"Sense of safety",true,1359,,,,,,,,,
64c3c4822b7f1c2b20dff932,forced_choice,120,39,"Openness",58,"Openness",false,"Social awareness",16,"Social awareness",false,"Social awareness",16,"Social awareness",false,"Openness",58,"Openness",false,1398,,,,,,,,,
64c3c4822b7f1c2b20dff932,forced_choice,121,39,"Assertiveness",70,"Assertiveness",false,"Openness",58,"Openness",false,"Openness",58,"Openness",false,"Assertiveness",70,"Assertiveness",false,1796,,,,,,,,,
64c3c4822b7f1c2b20dff932,forced_choice,122,39,"Moral",65,"Integrity and honesty",true,"Feeling accepted",20,"Social belonging",true,"Moral",65,"Integrity and honesty",true,"Feeling accepted",20,"Social belonging",true,1804,,,,,,,,,
64c3c4822b7f1c2b20dff932,forced_choice,123,39,"Assertiveness",70,"Assertiveness",false,"Sleep and fatigue",85,"Sleep and fatigue",false,"Assertiveness",70,"Assertiveness",false,"Sleep and fatigue",85,"Sleep and fatigue",false,1648,,,,,,,,,
64c3c4822b7f1c2b20dff932,forced_choice,124,39,"Handling disagreements",24,"Managing conflict",true,"Strategic preparation",42,"Planning",true,"Strategic preparation",42,"Planning",true,"Handling disagreements",24,"Managing conflict",true,2531,,,,,,,,,
64c3c4822b7f1c2b20dff932,forced_choice,125,39,"Frustration tolerance",62,"Patience",true,"Supportive",63,"Helpfulness",true,"Supportive",63,"Helpfulness",true,"Frustration tolerance",62,"Patience",true,2632,,,,,,,,,
64c3c4822b7f1c2b20dff932,forced_choice,126,39,"Mental regulation",34,"Managing thoughts",true,"Decision-making",36,"Decision-making",false,"Decision-making",36,"Decision-making",false,"Mental regulation",34,"Managing thoughts",true,1617,,,,,,,,,
64c3c4822b7f1c2b20dff932,forced_choice,127,39,"Personal observation",77,"Self-monitoring",true,"Expectations",72,"Future outlook",true,"Personal observation",77,"Self-monitoring",true,"Expectations",72,"Future outlook",true,1480,,,,,,,,,
64c3c4822b7f1c2b20dff932,forced_choice,128,39,"Assertiveness",70,"Assertiveness",false,"Social conformity",22,"Response to peer pressure",true,"Assertiveness",70,"Assertiveness",false,"Social conformity",22,"Response to peer pressure",true,1702,,,,,,,,,
64c3c4822b7f1c2b20dff932,forced_choice,129,39,"Drug intake",87,"Substance use",true,"Sleep and fatigue",85,"Sleep and fatigue",false,"Sleep and fatigue",85,"Sleep and fatigue",false,"Drug intake",87,"Substance use",true,8184,,,,,,,,,
64c3c4822b7f1c2b20dff932,forced_choice,130,39,"Frustration tolerance",62,"Patience",true,"Understanding text",52,"Reading",true,"Understanding text",52,"Reading",true,"Frustration tolerance",62,"Patience",true,2141,,,,,,,,,
64c3c4822b7f1c2b20dff932,forced_choice,131,39,"Rate of thought processing",48,"Thinking speed",true,"Handling disagreements",24,"Managing conflict",true,"Rate of thought processing",48,"Thinking speed",true,"Handling disagreements",24,"Managing conflict",true,3666,,,,,,,,,
64c3c4822b7f1c2b20dff932,forced_choice,132,39,"Personal security",21,"Sense of safety",true,"Moral",65,"Integrity and honesty",true,"Moral",65,"Integrity and honesty",true,"Personal security",21,"Sense of safety",true,2064,,,,,,,,,
64c3c4822b7f1c2b20dff932,forced_choice,133,39,"Displaying feelings",30,"Emotional expression",true,"Compassion",64,"Kindness and caring",true,"Displaying feelings",30,"Emotional expression",true,"Compassion",64,"Kindness and caring",true,1567,,,,,,,,,
64c3c4822b7f1c2b20dff932,forced_choice,134,39,"Supportive",63,"Helpfulness",true,"Strategic preparation",42,"Planning",true,"Strategic preparation",42,"Planning",true,"Supportive",63,"Helpfulness",true,1403,,,,,,,,,
64c3c4822b7f1c2b20dff932,forced_choice,135,39,"Compassion",64,"Kindness and caring",true,"Decision-making",36,"Decision-making",false,"Decision-making",36,"Decision-making",false,"Compassion",64,"Kindness and caring",true,1242,,,,,,,,,
64c3c4822b7f1c2b20dff932,forced_choice,136,39,"Supportive",63,"Helpfulness",true,"Confidence in groups",13,"Comfort in social situations",true,"Confidence in groups",13,"Comfort in social situations",true,"Supportive",63,"Helpfulness",true,1367,,,,,,,,,
64c3c4822b7f1c2b20dff932,forced_choice,137,39,"Social awareness",16,"Social awareness",false,"Moral",65,"Integrity and honesty",true,"Social awareness",16,"Social awareness",false,"Moral",65,"Integrity and honesty",true,1521,,,,,,,,,
64c3c4822b7f1c2b20dff932,forced_choice,138,39,"Expectations",72,"Future outlook",true,"Moral",65,"Integrity and honesty",true,"Moral",65,"Integrity and honesty",true,"Expectations",72,"Future outlook",true,1350,,,,,,,,,
64c3c4822b7f1c2b20dff932,forced_choice,139,39,"Retaining information",41,"Memory",true,"Personal security",21,"Sense of safety",true,"Personal security",21,"Sense of safety",true,"Retaining information",41,"Memory",true,2645,,,,,,,,,
64c3c4822b7f1c2b20dff932,forced_choice,140,39,"Compassion",64,"Kindness and caring",true,"Drug intake",87,"Substance use",true,"Compassion",64,"Kindness and caring",true,"Drug intake",87,"Substance use",true,1452,,,,,,,,,
64c3c4822b7f1c2b20dff932,forced_choice,141,39,"Personal observation",77,"Self-monitoring",true,"Compassion",64,"Kindness and caring",true,"Personal observation",77,"Self-monitoring",true,"Compassion",64,"Kindness and caring",true,1744,,,,,,,,,
64c3c4822b7f1c2b20dff932,forced_choice,142,39,"Drug intake",87,"Substance use",true,"Strategic preparation",42,"Planning",true,"Strategic preparation",42,"Planning",true,"Drug intake",87,"Substance use",true,1199,,,,,,,,,
64c3c4822b7f1c2b20dff932,forced_choice,143,39,"Personal security",21,"Sense of safety",true,"Handling disagreements",24,"Managing conflict",true,"Handling disagreements",24,"Managing conflict",true,"Personal security",21,"Sense of safety",true,1282,,,,,,,,,
64c3c4822b7f1c2b20dff932,forced_choice,144,39,"Handling disagreements",24,"Managing conflict",true,"Decision-making",36,"Decision-making",false,"Decision-making",36,"Decision-making",false,"Handling disagreements",24,"Managing conflict",true,1200,,,,,,,,,
64c3c4822b7f1c2b20dff932,forced_choice,145,39,"Retaining information",41,"Memory",true,"Social conformity",22,"Response to peer pressure",true,"Social conformity",22,"Response to peer pressure",true,"Retaining information",41,"Memory",true,2632,,,,,,,,,
64c3c4822b7f1c2b20dff932,forced_choice,146,39,"Drug intake",87,"Substance use",true,"Supportive",63,"Helpfulness",true,"Supportive",63,"Helpfulness",true,"Drug intake",87,"Substance use",true,1398,,,,,,,,,
64c3c4822b7f1c2b20dff932,forced_choice,147,39,"Resilience",28,"Resilience",false,"Mental regulation",34,"Managing thoughts",true,"Mental regulation",34,"Managing thoughts",true,"Resilience",28,"Resilience",false,2098,,,,,,,,,
64c3c4822b7f1c2b20dff932,forced_choice,148,39,"Feeling accepted",20,"Social belonging",true,"Retaining information",41,"Memory",true,"Feeling accepted",20,"Social belonging",true,"Retaining information",41,"Memory",true,2169,,,,,,,,,
64c3c4822b7f1c2b20dff932,forced_choice,149,39,"Handling disagreements",24,"Managing conflict",true,"Mental regulation",34,"Managing thoughts",true,"Mental regulation",34,"Managing thoughts",true,"Handling disagreements",24,"Managing conflict",true,2364,,,,,,,,,
64c3c4822b7f1c2b20dff932,forced_choice,150,39,"Resilience",28,"Resilience",false,"Confidence in groups",13,"Comfort in social situations",true,"Confidence in groups",13,"Comfort in social situations",true,"Resilience",28,"Resilience",false,2660,,,,,,,,,
64c3c4822b7f1c2b20dff932,forced_choice,151,39,"Strategic preparation",42,"Planning",true,"Expectations",72,"Future outlook",true,"Strategic preparation",42,"Planning",true,"Expectations",72,"Future outlook",true,2084,,,,,,,,,
64c3c4822b7f1c2b20dff932,forced_choice,152,39,"Understanding text",52,"Reading",true,"Time management",44,"Time management",false,"Understanding text",52,"Reading",true,"Time management",44,"Time management",false,1932,,,,,,,,,
64c3c4822b7f1c2b20dff932,forced_choice,153,39,"Feeling accepted",20,"Social belonging",true,"Personal security",21,"Sense of safety",true,"Personal security",21,"Sense of safety",true,"Feeling accepted",20,"Social belonging",true,2048,,,,,,,,,
64c3c4822b7f1c2b20dff932,forced_choice,154,39,"Confidence in groups",13,"Comfort in social situations",true,"Time management",44,"Time management",false,"Confidence in groups",13,"Comfort in social situations",true,"Time management",44,"Time management",false,54973,,,,,,,,,
64c3c4822b7f1c2b20dff932,forced_choice,155,39,"Supportive",63,"Helpfulness",true,"Compassion",64,"Kindness and caring",true,"Supportive",63,"Helpfulness",true,"Compassion",64,"Kindness and caring",true,2081,,,,,,,,,
64c3c4822b7f1c2b20dff932,forced_choice,156,39,"Assertiveness",70,"Assertiveness",false,"Resilience",28,"Resilience",false,"Assertiveness",70,"Assertiveness",false,"Resilience",28,"Resilience",false,1965,,,,,,,,,
64c3c4822b7f1c2b20dff932,forced_choice,157,39,"Drug intake",87,"Substance use",true,"Social conformity",22,"Response to peer pressure",true,"Social conformity",22,"Response to peer pressure",true,"Drug intake",87,"Substance use",true,1601,,,,,,,,,
64c3c4822b7f1c2b20dff932,forced_choice,158,39,"Frustration tolerance",62,"Patience",true,"Displaying feelings",30,"Emotional expression",true,"Displaying feelings",30,"Emotional expression",true,"Frustration tolerance",62,"Patience",true,2246,,,,,,,,,
64c3c4822b7f1c2b20dff932,forced_choice,159,39,"Rate of thought processing",48,"Thinking speed",true,"Time management",44,"Time management",false,"Rate of thought processing",48,"Thinking speed",true,"Time management",44,"Time management",false,1585,,,,,,,,,
64c3c4822b7f1c2b20dff932,forced_choice,160,39,"Retaining information",41,"Memory",true,"Sleep and fatigue",85,"Sleep and fatigue",false,"Sleep and fatigue",85,"Sleep and fatigue",false,"Retaining information",41,"Memory",true,3870,,,,,,,,,
64c3c4822b7f1c2b20dff932,forced_choice,161,39,"Personal observation",77,"Self-monitoring",true,"Resilience",28,"Resilience",false,"Personal observation",77,"Self-monitoring",true,"Resilience",28,"Resilience",false,1767,,,,,,,,,
64c3c4822b7f1c2b20dff932,forced_choice,162,39,"Moral",65,"Integrity and honesty",true,"Confidence in groups",13,"Comfort in social situations",true,"Confidence in groups",13,"Comfort in social situations",true,"Moral",65,"Integrity and honesty",true,1228,,,,,,,,,
64c3c4822b7f1c2b20dff932,forced_choice,163,39,"Moral",65,"Integrity and honesty",true,"Understanding text",52,"Reading",true,"Understanding text",52,"Reading",true,"Moral",65,"Integrity and honesty",true,1165,,,,,,,,,
64c3c4822b7f1c2b20dff932,forced_choice,164,39,"Personal observation",77,"Self-monitoring",true,"Supportive",63,"Helpfulness",true,"Supportive",63,"Helpfulness",true,"Personal observation",77,"Self-monitoring",true,1601,,,,,,,,,
64c3c4822b7f1c2b20dff932,attention_check,167,,,,,,,,,,,,,,,,,,2729,"Social skills","Social skills",true,,,,,,
64c3c4822b7f1c2b20dff932,forced_choice,165,39,"Feeling accepted",20,"Social belonging",true,"Supportive",63,"Helpfulness",true,"Supportive",63,"Helpfulness",true,"Feeling accepted",20,"Social belonging",true,7971,,,,,,,,,
64c3c4822b7f1c2b20dff932,forced_choice,166,39,"Retaining information",41,"Memory",true,"Initiative",69,"Initiative",false,"Initiative",69,"Initiative",false,"Retaining information",41,"Memory",true,997,,,,,,,,,
64c3c4822b7f1c2b20dff932,forced_choice,167,39,"Drug intake",87,"Substance use",true,"Displaying feelings",30,"Emotional expression",true,"Displaying feelings",30,"Emotional expression",true,"Drug intake",87,"Substance use",true,1584,,,,,,,,,
64c3c4822b7f1c2b20dff932,forced_choice,168,39,"Feeling accepted",20,"Social belonging",true,"Strategic preparation",42,"Planning",true,"Strategic preparation",42,"Planning",true,"Feeling accepted",20,"Social belonging",true,1249,,,,,,,,,
64c3c4822b7f1c2b20dff932,forced_choice,169,39,"Strategic preparation",42,"Planning",true,"Assertiveness",70,"Assertiveness",false,"Strategic preparation",42,"Planning",true,"Assertiveness",70,"Assertiveness",false,1338,,,,,,,,,
64c3c4822b7f1c2b20dff932,forced_choice,170,39,"Assertiveness",70,"Assertiveness",false,"Social awareness",16,"Social awareness",false,"Assertiveness",70,"Assertiveness",false,"Social awareness",16,"Social awareness",false,3232,,,,,,,,,
64c3c4822b7f1c2b20dff932,forced_choice,171,39,"Time management",44,"Time management",false,"Feeling accepted",20,"Social belonging",true,"Time management",44,"Time management",false,"Feeling accepted",20,"Social belonging",true,1332,,,,,,,,,
64c3c4822b7f1c2b20dff932,forced_choice,172,39,"Handling disagreements",24,"Managing conflict",true,"Compassion",64,"Kindness and caring",true,"Handling disagreements",24,"Managing conflict",true,"Compassion",64,"Kindness and caring",true,1352,,,,,,,,,
64c3c4822b7f1c2b20dff932,forced_choice,173,39,"Supportive",63,"Helpfulness",true,"Personal security",21,"Sense of safety",true,"Personal security",21,"Sense of safety",true,"Supportive",63,"Helpfulness",true,1703,,,,,,,,,
64c3c4822b7f1c2b20dff932,forced_choice,174,39,"Confidence in groups",13,"Comfort in social situations",true,"Displaying feelings",30,"Emotional expression",true,"Confidence in groups",13,"Comfort in social situations",true,"Displaying feelings",30,"Emotional expression",true,2315,,,,,,,,,
64c3c4822b7f1c2b20dff932,forced_choice,175,39,"Sleep and fatigue",85,"Sleep and fatigue",false,"Decision-making",36,"Decision-making",false,"Sleep and fatigue",85,"Sleep and fatigue",false,"Decision-making",36,"Decision-making",false,1316,,,,,,,,,
64c3c4822b7f1c2b20dff932,forced_choice,176,39,"Moral",65,"Integrity and honesty",true,"Decision-making",36,"Decision-making",false,"Decision-making",36,"Decision-making",false,"Moral",65,"Integrity and honesty",true,1237,,,,,,,,,
64c3c4822b7f1c2b20dff932,forced_choice,177,39,"Moral",65,"Integrity and honesty",true,"Strategic preparation",42,"Planning",true,"Strategic preparation",42,"Planning",true,"Moral",65,"Integrity and honesty",true,2613,,,,,,,,,
64c3c4822b7f1c2b20dff932,forced_choice,178,39,"Personal security",21,"Sense of safety",true,"Social conformity",22,"Response to peer pressure",true,"Social conformity",22,"Response to peer pressure",true,"Personal security",21,"Sense of safety",true,2096,,,,,,,,,
64c3c4822b7f1c2b20dff932,forced_choice,179,39,"Handling disagreements",24,"Managing conflict",true,"Retaining information",41,"Memory",true,"Handling disagreements",24,"Managing conflict",true,"Retaining information",41,"Memory",true,2359,,,,,,,,,
64c3c4822b7f1c2b20dff932,forced_choice,180,39,"Handling disagreements",24,"Managing conflict",true,"Understanding text",52,"Reading",true,"Understanding text",52,"Reading",true,"Handling disagreements",24,"Managing conflict",true,13925,,,,,,,,,
64c3c4822b7f1c2b20dff932,forced_choice,181,39,"Strategic preparation",42,"Planning",true,"Compassion",64,"Kindness and caring",true,"Strategic preparation",42,"Planning",true,"Compassion",64,"Kindness and caring",true,1800,,,,,,,,,
64c3c4822b7f1c2b20dff932,forced_choice,182,39,"Feeling accepted",20,"Social belonging",true,"Sleep and fatigue",85,"Sleep and fatigue",false,"Sleep and fatigue",85,"Sleep and fatigue",false,"Feeling accepted",20,"Social belonging",true,2034,,,,,,,,,
64c3c4822b7f1c2b20dff932,forced_choice,183,39,"Initiative",69,"Initiative",false,"Mental regulation",34,"Managing thoughts",true,"Initiative",69,"Initiative",false,"Mental regulation",34,"Managing thoughts",true,2831,,,,,,,,,
64c3c4822b7f1c2b20dff932,forced_choice,184,39,"Confidence in groups",13,"Comfort in social situations",true,"Social awareness",16,"Social awareness",false,"Confidence in groups",13,"Comfort in social situations",true,"Social awareness",16,"Social awareness",false,1197,,,,,,,,,
64c3c4822b7f1c2b20dff932,forced_choice,185,39,"Social conformity",22,"Response to peer pressure",true,"Displaying feelings",30,"Emotional expression",true,"Displaying feelings",30,"Emotional expression",true,"Social conformity",22,"Response to peer pressure",true,2486,,,,,,,,,
64c3c4822b7f1c2b20dff932,forced_choice,186,39,"Handling disagreements",24,"Managing conflict",true,"Social awareness",16,"Social awareness",false,"Handling disagreements",24,"Managing conflict",true,"Social awareness",16,"Social awareness",false,3015,,,,,,,,,
64c3c4822b7f1c2b20dff932,forced_choice,187,39,"Initiative",69,"Initiative",false,"Decision-making",36,"Decision-making",false,"Decision-making",36,"Decision-making",false,"Initiative",69,"Initiative",false,1565,,,,,,,,,
64c3c4822b7f1c2b20dff932,forced_choice,188,39,"Assertiveness",70,"Assertiveness",false,"Mental regulation",34,"Managing thoughts",true,"Assertiveness",70,"Assertiveness",false,"Mental regulation",34,"Managing thoughts",true,2033,,,,,,,,,
64c3c4822b7f1c2b20dff932,forced_choice,189,39,"Social awareness",16,"Social awareness",false,"Social conformity",22,"Response to peer pressure",true,"Social awareness",16,"Social awareness",false,"Social conformity",22,"Response to peer pressure",true,1761,,,,,,,,,
64c3c4822b7f1c2b20dff932,forced_choice,190,39,"Social awareness",16,"Social awareness",false,"Decision-making",36,"Decision-making",false,"Decision-making",36,"Decision-making",false,"Social awareness",16,"Social awareness",false,1219,,,,,,,,,
64c3c4822b7f1c2b20dff932,forced_choice,191,39,"Assertiveness",70,"Assertiveness",false,"Supportive",63,"Helpfulness",true,"Assertiveness",70,"Assertiveness",false,"Supportive",63,"Helpfulness",true,1649,,,,,,,,,
64c3c4822b7f1c2b20dff932,forced_choice,192,39,"Openness",58,"Openness",false,"Rate of thought processing",48,"Thinking speed",true,"Rate of thought processing",48,"Thinking speed",true,"Openness",58,"Openness",false,1433,,,,,,,,,
64c3c4822b7f1c2b20dff932,forced_choice,193,39,"Personal observation",77,"Self-monitoring",true,"Sleep and fatigue",85,"Sleep and fatigue",false,"Personal observation",77,"Self-monitoring",true,"Sleep and fatigue",85,"Sleep and fatigue",false,1682,,,,,,,,,
64c3c4822b7f1c2b20dff932,forced_choice,194,39,"Assertiveness",70,"Assertiveness",false,"Frustration tolerance",62,"Patience",true,"Assertiveness",70,"Assertiveness",false,"Frustration tolerance",62,"Patience",true,1584,,,,,,,,,
64c3c4822b7f1c2b20dff932,forced_choice,195,39,"Supportive",63,"Helpfulness",true,"Mental regulation",34,"Managing thoughts",true,"Supportive",63,"Helpfulness",true,"Mental regulation",34,"Managing thoughts",true,2247,,,,,,,,,
64c3c4822b7f1c2b20dff932,forced_choice,196,39,"Confidence in groups",13,"Comfort in social situations",true,"Decision-making",36,"Decision-making",false,"Decision-making",36,"Decision-making",false,"Confidence in groups",13,"Comfort in social situations",true,1537,,,,,,,,,
64c3c4822b7f1c2b20dff932,forced_choice,197,39,"Handling disagreements",24,"Managing conflict",true,"Personal observation",77,"Self-monitoring",true,"Handling disagreements",24,"Managing conflict",true,"Personal observation",77,"Self-monitoring",true,2683,,,,,,,,,
64c3c4822b7f1c2b20dff932,forced_choice,198,39,"Sleep and fatigue",85,"Sleep and fatigue",false,"Frustration tolerance",62,"Patience",true,"Sleep and fatigue",85,"Sleep and fatigue",false,"Frustration tolerance",62,"Patience",true,3213,,,,,,,,,
64c3c4822b7f1c2b20dff932,forced_choice,199,39,"Openness",58,"Openness",false,"Supportive",63,"Helpfulness",true,"Openness",58,"Openness",false,"Supportive",63,"Helpfulness",true,1661,,,,,,,,,
64c3c4822b7f1c2b20dff932,forced_choice,200,39,"Personal observation",77,"Self-monitoring",true,"Drug intake",87,"Substance use",true,"Personal observation",77,"Self-monitoring",true,"Drug intake",87,"Substance use",true,1666,,,,,,,,,
64c3c4822b7f1c2b20dff932,forced_choice,201,39,"Feeling accepted",20,"Social belonging",true,"Assertiveness",70,"Assertiveness",false,"Assertiveness",70,"Assertiveness",false,"Feeling accepted",20,"Social belonging",true,1418,,,,,,,,,
64c3c4822b7f1c2b20dff932,forced_choice,202,39,"Sleep and fatigue",85,"Sleep and fatigue",false,"Supportive",63,"Helpfulness",true,"Supportive",63,"Helpfulness",true,"Sleep and fatigue",85,"Sleep and fatigue",false,1247,,,,,,,,,
64c3c4822b7f1c2b20dff932,forced_choice,203,39,"Mental regulation",34,"Managing thoughts",true,"Confidence in groups",13,"Comfort in social situations",true,"Confidence in groups",13,"Comfort in social situations",true,"Mental regulation",34,"Managing thoughts",true,1167,,,,,,,,,
64c3c4822b7f1c2b20dff932,forced_choice,204,39,"Handling disagreements",24,"Managing conflict",true,"Moral",65,"Integrity and honesty",true,"Handling disagreements",24,"Managing conflict",true,"Moral",65,"Integrity and honesty",true,2885,,,,,,,,,
64c3c4822b7f1c2b20dff932,forced_choice,205,39,"Rate of thought processing",48,"Thinking speed",true,"Frustration tolerance",62,"Patience",true,"Rate of thought processing",48,"Thinking speed",true,"Frustration tolerance",62,"Patience",true,1714,,,,,,,,,
64c3c4822b7f1c2b20dff932,forced_choice,206,39,"Frustration tolerance",62,"Patience",true,"Resilience",28,"Resilience",false,"Resilience",28,"Resilience",false,"Frustration tolerance",62,"Patience",true,3135,,,,,,,,,
64c3c4822b7f1c2b20dff932,forced_choice,207,39,"Displaying feelings",30,"Emotional expression",true,"Rate of thought processing",48,"Thinking speed",true,"Rate of thought processing",48,"Thinking speed",true,"Displaying feelings",30,"Emotional expression",true,2427,,,,,,,,,
64c3c4822b7f1c2b20dff932,forced_choice,208,39,"Social awareness",16,"Social awareness",false,"Personal security",21,"Sense of safety",true,"Social awareness",16,"Social awareness",false,"Personal security",21,"Sense of safety",true,2319,,,,,,,,,
64c3c4822b7f1c2b20dff932,forced_choice,209,39,"Drug intake",87,"Substance use",true,"Retaining information",41,"Memory",true,"Drug intake",87,"Substance use",true,"Retaining information",41,"Memory",true,1629,,,,,,,,,
64c3c4822b7f1c2b20dff932,forced_choice,210,39,"Supportive",63,"Helpfulness",true,"Understanding text",52,"Reading",true,"Understanding text",52,"Reading",true,"Supportive",63,"Helpfulness",true,2386,,,,,,,,,
64c3c4822b7f1c2b20dff932,forced_choice,211,39,"Assertiveness",70,"Assertiveness",false,"Personal observation",77,"Self-monitoring",true,"Assertiveness",70,"Assertiveness",false,"Personal observation",77,"Self-monitoring",true,1814,,,,,,,,,
64c3c4822b7f1c2b20dff932,forced_choice,212,39,"Personal security",21,"Sense of safety",true,"Drug intake",87,"Substance use",true,"Personal security",21,"Sense of safety",true,"Drug intake",87,"Substance use",true,2964,,,,,,,,,
64c3c4822b7f1c2b20dff932,forced_choice,213,39,"Decision-making",36,"Decision-making",false,"Time management",44,"Time management",false,"Time management",44,"Time management",false,"Decision-making",36,"Decision-making",false,1916,,,,,,,,,
64c3c4822b7f1c2b20dff932,forced_choice,214,39,"Compassion",64,"Kindness and caring",true,"Expectations",72,"Future outlook",true,"Expectations",72,"Future outlook",true,"Compassion",64,"Kindness and caring",true,1981,,,,,,,,,
64c3c4822b7f1c2b20dff932,forced_choice,215,39,"Compassion",64,"Kindness and caring",true,"Confidence in groups",13,"Comfort in social situations",true,"Confidence in groups",13,"Comfort in social situations",true,"Compassion",64,"Kindness and caring",true,1199,,,,,,,,,
64c3c4822b7f1c2b20dff932,forced_choice,216,39,"Resilience",28,"Resilience",false,"Understanding text",52,"Reading",true,"Understanding text",52,"Reading",true,"Resilience",28,"Resilience",false,1250,,,,,,,,,
64c3c4822b7f1c2b20dff932,forced_choice,217,39,"Decision-making",36,"Decision-making",false,"Openness",58,"Openness",false,"Decision-making",36,"Decision-making",false,"Openness",58,"Openness",false,1285,,,,,,,,,
64c3c4822b7f1c2b20dff932,forced_choice,218,39,"Social conformity",22,"Response to peer pressure",true,"Moral",65,"Integrity and honesty",true,"Moral",65,"Integrity and honesty",true,"Social conformity",22,"Response to peer pressure",true,1265,,,,,,,,,
64c3c4822b7f1c2b20dff932,forced_choice,219,39,"Assertiveness",70,"Assertiveness",false,"Decision-making",36,"Decision-making",false,"Decision-making",36,"Decision-making",false,"Assertiveness",70,"Assertiveness",false,1210,,,,,,,,,
64c3c4822b7f1c2b20dff932,attention_check,223,,,,,,,,,,,,,,,,,,2436,"Playing with others","Playing with others",true,,,,,,
64c3c4822b7f1c2b20dff932,forced_choice,220,39,"Social awareness",16,"Social awareness",false,"Feeling accepted",20,"Social belonging",true,"Feeling accepted",20,"Social belonging",true,"Social awareness",16,"Social awareness",false,4433,,,,,,,,,
64c3c4822b7f1c2b20dff932,forced_choice,221,39,"Supportive",63,"Helpfulness",true,"Social conformity",22,"Response to peer pressure",true,"Supportive",63,"Helpfulness",true,"Social conformity",22,"Response to peer pressure",true,2736,,,,,,,,,
64c3c4822b7f1c2b20dff932,forced_choice,222,39,"Initiative",69,"Initiative",false,"Displaying feelings",30,"Emotional expression",true,"Initiative",69,"Initiative",false,"Displaying feelings",30,"Emotional expression",true,1028,,,,,,,,,
64c3c4822b7f1c2b20dff932,forced_choice,223,39,"Time management",44,"Time management",false,"Displaying feelings",30,"Emotional expression",true,"Displaying feelings",30,"Emotional expression",true,"Time management",44,"Time management",false,1869,,,,,,,,,
64c3c4822b7f1c2b20dff932,forced_choice,224,39,"Expectations",72,"Future outlook",true,"Mental regulation",34,"Managing thoughts",true,"Expectations",72,"Future outlook",true,"Mental regulation",34,"Managing thoughts",true,3098,,,,,,,,,
64c3c4822b7f1c2b20dff932,forced_choice,225,39,"Displaying feelings",30,"Emotional expression",true,"Mental regulation",34,"Managing thoughts",true,"Displaying feelings",30,"Emotional expression",true,"Mental regulation",34,"Managing thoughts",true,1913,,,,,,,,,
64c3c4822b7f1c2b20dff932,forced_choice,226,39,"Understanding text",52,"Reading",true,"Personal security",21,"Sense of safety",true,"Understanding text",52,"Reading",true,"Personal security",21,"Sense of safety",true,1266,,,,,,,,,
64c3c4822b7f1c2b20dff932,forced_choice,227,39,"Openness",58,"Openness",false,"Understanding text",52,"Reading",true,"Understanding text",52,"Reading",true,"Openness",58,"Openness",false,1186,,,,,,,,,
64c3c4822b7f1c2b20dff932,forced_choice,228,39,"Mental regulation",34,"Managing thoughts",true,"Openness",58,"Openness",false,"Mental regulation",34,"Managing thoughts",true,"Openness",58,"Openness",false,1632,,,,,,,,,
64c3c4822b7f1c2b20dff932,forced_choice,229,39,"Drug intake",87,"Substance use",true,"Initiative",69,"Initiative",false,"Initiative",69,"Initiative",false,"Drug intake",87,"Substance use",true,1383,,,,,,,,,
64c3c4822b7f1c2b20dff932,forced_choice,230,39,"Personal observation",77,"Self-monitoring",true,"Social awareness",16,"Social awareness",false,"Personal observation",77,"Self-monitoring",true,"Social awareness",16,"Social awareness",false,3216,,,,,,,,,
64c3c4822b7f1c2b20dff932,forced_choice,231,39,"Confidence in groups",13,"Comfort in social situations",true,"Assertiveness",70,"Assertiveness",false,"Confidence in groups",13,"Comfort in social situations",true,"Assertiveness",70,"Assertiveness",false,4732,,,,,,,,,
64c3c4822b7f1c2b20dff932,forced_choice,232,39,"Time management",44,"Time management",false,"Compassion",64,"Kindness and caring",true,"Time management",44,"Time management",false,"Compassion",64,"Kindness and caring",true,1181,,,,,,,,,
64c3c4822b7f1c2b20dff932,forced_choice,233,39,"Strategic preparation",42,"Planning",true,"Confidence in groups",13,"Comfort in social situations",true,"Confidence in groups",13,"Comfort in social situations",true,"Strategic preparation",42,"Planning",true,1902,,,,,,,,,
64c3c4822b7f1c2b20dff932,forced_choice,234,39,"Strategic preparation",42,"Planning",true,"Personal observation",77,"Self-monitoring",true,"Strategic preparation",42,"Planning",true,"Personal observation",77,"Self-monitoring",true,2433,,,,,,,,,
64c3c4822b7f1c2b20dff932,forced_choice,235,39,"Resilience",28,"Resilience",false,"Strategic preparation",42,"Planning",true,"Strategic preparation",42,"Planning",true,"Resilience",28,"Resilience",false,2283,,,,,,,,,
64c3c4822b7f1c2b20dff932,forced_choice,236,39,"Expectations",72,"Future outlook",true,"Social conformity",22,"Response to peer pressure",true,"Expectations",72,"Future outlook",true,"Social conformity",22,"Response to peer pressure",true,1716,,,,,,,,,
64c3c4822b7f1c2b20dff932,forced_choice,237,39,"Drug intake",87,"Substance use",true,"Resilience",28,"Resilience",false,"Resilience",28,"Resilience",false,"Drug intake",87,"Substance use",true,1532,,,,,,,,,
64c3c4822b7f1c2b20dff932,forced_choice,238,39,"Rate of thought processing",48,"Thinking speed",true,"Feeling accepted",20,"Social belonging",true,"Rate of thought processing",48,"Thinking speed",true,"Feeling accepted",20,"Social belonging",true,2317,,,,,,,,,
64c3c4822b7f1c2b20dff932,forced_choice,239,39,"Understanding text",52,"Reading",true,"Assertiveness",70,"Assertiveness",false,"Understanding text",52,"Reading",true,"Assertiveness",70,"Assertiveness",false,1328,,,,,,,,,
64c3c4822b7f1c2b20dff932,forced_choice,240,39,"Time management",44,"Time management",false,"Retaining information",41,"Memory",true,"Time management",44,"Time management",false,"Retaining information",41,"Memory",true,1650,,,,,,,,,
64c3c4822b7f1c2b20dff932,forced_choice,241,39,"Rate of thought processing",48,"Thinking speed",true,"Assertiveness",70,"Assertiveness",false,"Rate of thought processing",48,"Thinking speed",true,"Assertiveness",70,"Assertiveness",false,1582,,,,,,,,,
64c3c4822b7f1c2b20dff932,forced_choice,242,39,"Understanding text",52,"Reading",true,"Strategic preparation",42,"Planning",true,"Understanding text",52,"Reading",true,"Strategic preparation",42,"Planning",true,1631,,,,,,,,,
64c3c4822b7f1c2b20dff932,forced_choice,243,39,"Resilience",28,"Resilience",false,"Rate of thought processing",48,"Thinking speed",true,"Rate of thought processing",48,"Thinking speed",true,"Resilience",28,"Resilience",false,1718,,,,,,,,,
64c3c4822b7f1c2b20dff932,forced_choice,244,39,"Rate of thought processing",48,"Thinking speed",true,"Initiative",69,"Initiative",false,"Initiative",69,"Initiative",false,"Rate of thought processing",48,"Thinking speed",true,1463,,,,,,,,,
64c3c4822b7f1c2b20dff932,forced_choice,245,39,"Retaining information",41,"Memory",true,"Supportive",63,"Helpfulness",true,"Supportive",63,"Helpfulness",true,"Retaining information",41,"Memory",true,2381,,,,,,,,,
64c3c4822b7f1c2b20dff932,forced_choice,246,39,"Expectations",72,"Future outlook",true,"Displaying feelings",30,"Emotional expression",true,"Displaying feelings",30,"Emotional expression",true,"Expectations",72,"Future outlook",true,2635,,,,,,,,,
64c3c4822b7f1c2b20dff932,forced_choice,247,39,"Openness",58,"Openness",false,"Expectations",72,"Future outlook",true,"Expectations",72,"Future outlook",true,"Openness",58,"Openness",false,1164,,,,,,,,,
64c3c4822b7f1c2b20dff932,forced_choice,248,39,"Moral",65,"Integrity and honesty",true,"Compassion",64,"Kindness and caring",true,"Moral",65,"Integrity and honesty",true,"Compassion",64,"Kindness and caring",true,1218,,,,,,,,,
64c3c4822b7f1c2b20dff932,forced_choice,249,39,"Frustration tolerance",62,"Patience",true,"Moral",65,"Integrity and honesty",true,"Frustration tolerance",62,"Patience",true,"Moral",65,"Integrity and honesty",true,1994,,,,,,,,,
64c3c4822b7f1c2b20dff932,forced_choice,250,39,"Drug intake",87,"Substance use",true,"Mental regulation",34,"Managing thoughts",true,"Mental regulation",34,"Managing thoughts",true,"Drug intake",87,"Substance use",true,2188,,,,,,,,,
64c3c4822b7f1c2b20dff932,forced_choice,251,39,"Personal security",21,"Sense of safety",true,"Openness",58,"Openness",false,"Personal security",21,"Sense of safety",true,"Openness",58,"Openness",false,1798,,,,,,,,,
64c3c4822b7f1c2b20dff932,forced_choice,252,39,"Handling disagreements",24,"Managing conflict",true,"Sleep and fatigue",85,"Sleep and fatigue",false,"Handling disagreements",24,"Managing conflict",true,"Sleep and fatigue",85,"Sleep and fatigue",false,1915,,,,,,,,,
64c3c4822b7f1c2b20dff932,forced_choice,253,39,"Supportive",63,"Helpfulness",true,"Initiative",69,"Initiative",false,"Initiative",69,"Initiative",false,"Supportive",63,"Helpfulness",true,2498,,,,,,,,,
64c3c4822b7f1c2b20dff932,forced_choice,254,39,"Rate of thought processing",48,"Thinking speed",true,"Retaining information",41,"Memory",true,"Rate of thought processing",48,"Thinking speed",true,"Retaining information",41,"Memory",true,2234,,,,,,,,,
64c3c4822b7f1c2b20dff932,forced_choice,255,39,"Expectations",72,"Future outlook",true,"Confidence in groups",13,"Comfort in social situations",true,"Confidence in groups",13,"Comfort in social situations",true,"Expectations",72,"Future outlook",true,1833,,,,,,,,,
64c3c4822b7f1c2b20dff932,forced_choice,256,39,"Displaying feelings",30,"Emotional expression",true,"Feeling accepted",20,"Social belonging",true,"Displaying feelings",30,"Emotional expression",true,"Feeling accepted",20,"Social belonging",true,3484,,,,,,,,,
64c3c4822b7f1c2b20dff932,forced_choice,257,39,"Resilience",28,"Resilience",false,"Retaining information",41,"Memory",true,"Retaining information",41,"Memory",true,"Resilience",28,"Resilience",false,2333,,,,,,,,,
64c3c4822b7f1c2b20dff932,forced_choice,258,39,"Openness",58,"Openness",false,"Frustration tolerance",62,"Patience",true,"Openness",58,"Openness",false,"Frustration tolerance",62,"Patience",true,3852,,,,,,,,,
64c3c4822b7f1c2b20dff932,forced_choice,259,39,"Sleep and fatigue",85,"Sleep and fatigue",false,"Rate of thought processing",48,"Thinking speed",true,"Rate of thought processing",48,"Thinking speed",true,"Sleep and fatigue",85,"Sleep and fatigue",false,1498,,,,,,,,,
64c3c4822b7f1c2b20dff932,forced_choice,260,39,"Handling disagreements",24,"Managing conflict",true,"Confidence in groups",13,"Comfort in social situations",true,"Confidence in groups",13,"Comfort in social situations",true,"Handling disagreements",24,"Managing conflict",true,1995,,,,,,,,,
64c3c4822b7f1c2b20dff932,forced_choice,261,39,"Time management",44,"Time management",false,"Handling disagreements",24,"Managing conflict",true,"Handling disagreements",24,"Managing conflict",true,"Time management",44,"Time management",false,1381,,,,,,,,,
64c3c4822b7f1c2b20dff932,forced_choice,262,39,"Rate of thought processing",48,"Thinking speed",true,"Social conformity",22,"Response to peer pressure",true,"Rate of thought processing",48,"Thinking speed",true,"Social conformity",22,"Response to peer pressure",true,2202,,,,,,,,,
64c3c4822b7f1c2b20dff932,forced_choice,263,39,"Personal observation",77,"Self-monitoring",true,"Understanding text",52,"Reading",true,"Understanding text",52,"Reading",true,"Personal observation",77,"Self-monitoring",true,1315,,,,,,,,,
64c3c4822b7f1c2b20dff932,forced_choice,264,39,"Expectations",72,"Future outlook",true,"Resilience",28,"Resilience",false,"Expectations",72,"Future outlook",true,"Resilience",28,"Resilience",false,1115,,,,,,,,,
64c3c4822b7f1c2b20dff932,forced_choice,265,39,"Personal observation",77,"Self-monitoring",true,"Mental regulation",34,"Managing thoughts",true,"Personal observation",77,"Self-monitoring",true,"Mental regulation",34,"Managing thoughts",true,5884,,,,,,,,,
64c3c4822b7f1c2b20dff932,forced_choice,266,39,"Frustration tolerance",62,"Patience",true,"Strategic preparation",42,"Planning",true,"Frustration tolerance",62,"Patience",true,"Strategic preparation",42,"Planning",true,1648,,,,,,,,,
64c3c4822b7f1c2b20dff932,forced_choice,267,39,"Sleep and fatigue",85,"Sleep and fatigue",false,"Social conformity",22,"Response to peer pressure",true,"Sleep and fatigue",85,"Sleep and fatigue",false,"Social conformity",22,"Response to peer pressure",true,1565,,,,,,,,,
64c3c4822b7f1c2b20dff932,forced_choice,268,39,"Rate of thought processing",48,"Thinking speed",true,"Expectations",72,"Future outlook",true,"Rate of thought processing",48,"Thinking speed",true,"Expectations",72,"Future outlook",true,1399,,,,,,,,,
64c3c4822b7f1c2b20dff932,forced_choice,269,39,"Mental regulation",34,"Managing thoughts",true,"Understanding text",52,"Reading",true,"Understanding text",52,"Reading",true,"Mental regulation",34,"Managing thoughts",true,1417,,,,,,,,,
64c3c4822b7f1c2b20dff932,forced_choice,270,39,"Frustration tolerance",62,"Patience",true,"Initiative",69,"Initiative",false,"Initiative",69,"Initiative",false,"Frustration tolerance",62,"Patience",true,1177,,,,,,,,,
64c3c4822b7f1c2b20dff932,forced_choice,271,39,"Personal security",21,"Sense of safety",true,"Resilience",28,"Resilience",false,"Resilience",28,"Resilience",false,"Personal security",21,"Sense of safety",true,1250,,,,,,,,,
64c3c4822b7f1c2b20dff932,forced_choice,272,39,"Expectations",72,"Future outlook",true,"Sleep and fatigue",85,"Sleep and fatigue",false,"Expectations",72,"Future outlook",true,"Sleep and fatigue",85,"Sleep and fatigue",false,1069,,,,,,,,,
64c3c4822b7f1c2b20dff932,forced_choice,273,39,"Assertiveness",70,"Assertiveness",false,"Displaying feelings",30,"Emotional expression",true,"Assertiveness",70,"Assertiveness",false,"Displaying feelings",30,"Emotional expression",true,1079,,,,,,,,,
64c3c4822b7f1c2b20dff932,forced_choice,274,39,"Openness",58,"Openness",false,"Resilience",28,"Resilience",false,"Resilience",28,"Resilience",false,"Openness",58,"Openness",false,1686,,,,,,,,,
64c3c4822b7f1c2b20dff932,attention_check,279,,,,,,,,,,,,,,,,,,5231,"Playing with others","Playing with others",true,,,,,,
64c3c4822b7f1c2b20dff932,forced_choice,275,39,"Initiative",69,"Initiative",false,"Compassion",64,"Kindness and caring",true,"Initiative",69,"Initiative",false,"Compassion",64,"Kindness and caring",true,1901,,,,,,,,,
64c3c4822b7f1c2b20dff932,forced_choice,276,39,"Openness",58,"Openness",false,"Initiative",69,"Initiative",false,"Initiative",69,"Initiative",false,"Openness",58,"Openness",false,1353,,,,,,,,,
64c3c4822b7f1c2b20dff932,forced_choice,277,39,"Resilience",28,"Resilience",false,"Displaying feelings",30,"Emotional expression",true,"Displaying feelings",30,"Emotional expression",true,"Resilience",28,"Resilience",false,1528,,,,,,,,,
64c3c4822b7f1c2b20dff932,forced_choice,278,39,"Sleep and fatigue",85,"Sleep and fatigue",false,"Mental regulation",34,"Managing thoughts",true,"Mental regulation",34,"Managing thoughts",true,"Sleep and fatigue",85,"Sleep and fatigue",false,1749,,,,,,,,,
64c3c4822b7f1c2b20dff932,forced_choice,279,39,"Social awareness",16,"Social awareness",false,"Rate of thought processing",48,"Thinking speed",true,"Rate of thought processing",48,"Thinking speed",true,"Social awareness",16,"Social awareness",false,1583,,,,,,,,,
64c3c4822b7f1c2b20dff932,forced_choice,280,39,"Social awareness",16,"Social awareness",false,"Resilience",28,"Resilience",false,"Resilience",28,"Resilience",false,"Social awareness",16,"Social awareness",false,2430,,,,,,,,,
64c3c4822b7f1c2b20dff932,forced_choice,281,39,"Initiative",69,"Initiative",false,"Feeling accepted",20,"Social belonging",true,"Initiative",69,"Initiative",false,"Feeling accepted",20,"Social belonging",true,1154,,,,,,,,,
64c3c4822b7f1c2b20dff932,forced_choice,282,39,"Retaining information",41,"Memory",true,"Decision-making",36,"Decision-making",false,"Decision-making",36,"Decision-making",false,"Retaining information",41,"Memory",true,1613,,,,,,,,,
64c3c4822b7f1c2b20dff932,forced_choice,283,39,"Personal observation",77,"Self-monitoring",true,"Initiative",69,"Initiative",false,"Personal observation",77,"Self-monitoring",true,"Initiative",69,"Initiative",false,1386,,,,,,,,,
64c3c4822b7f1c2b20dff932,forced_choice,284,39,"Openness",58,"Openness",false,"Feeling accepted",20,"Social belonging",true,"Feeling accepted",20,"Social belonging",true,"Openness",58,"Openness",false,1148,,,,,,,,,
64c3c4822b7f1c2b20dff932,forced_choice,285,39,"Expectations",72,"Future outlook",true,"Understanding text",52,"Reading",true,"Understanding text",52,"Reading",true,"Expectations",72,"Future outlook",true,1913,,,,,,,,,
64c3c4822b7f1c2b20dff932,forced_choice,286,39,"Handling disagreements",24,"Managing conflict",true,"Feeling accepted",20,"Social belonging",true,"Handling disagreements",24,"Managing conflict",true,"Feeling accepted",20,"Social belonging",true,2184,,,,,,,,,
64c3c4822b7f1c2b20dff932,forced_choice,287,39,"Drug intake",87,"Substance use",true,"Expectations",72,"Future outlook",true,"Drug intake",87,"Substance use",true,"Expectations",72,"Future outlook",true,1663,,,,,,,,,
64c3c4822b7f1c2b20dff932,forced_choice,288,39,"Assertiveness",70,"Assertiveness",false,"Retaining information",41,"Memory",true,"Assertiveness",70,"Assertiveness",false,"Retaining information",41,"Memory",true,3600,,,,,,,,,
64c3c4822b7f1c2b20dff932,forced_choice,289,39,"Rate of thought processing",48,"Thinking speed",true,"Personal security",21,"Sense of safety",true,"Rate of thought processing",48,"Thinking speed",true,"Personal security",21,"Sense of safety",true,1665,,,,,,,,,
64c3c4822b7f1c2b20dff932,forced_choice,290,39,"Openness",58,"Openness",false,"Strategic preparation",42,"Planning",true,"Strategic preparation",42,"Planning",true,"Openness",58,"Openness",false,1169,,,,,,,,,
64c3c4822b7f1c2b20dff932,forced_choice,291,39,"Rate of thought processing",48,"Thinking speed",true,"Moral",65,"Integrity and honesty",true,"Rate of thought processing",48,"Thinking speed",true,"Moral",65,"Integrity and honesty",true,1715,,,,,,,,,
64c3c4822b7f1c2b20dff932,forced_choice,292,39,"Personal security",21,"Sense of safety",true,"Personal observation",77,"Self-monitoring",true,"Personal observation",77,"Self-monitoring",true,"Personal security",21,"Sense of safety",true,1582,,,,,,,,,
64c3c4822b7f1c2b20dff932,forced_choice,293,39,"Displaying feelings",30,"Emotional expression",true,"Supportive",63,"Helpfulness",true,"Displaying feelings",30,"Emotional expression",true,"Supportive",63,"Helpfulness",true,2616,,,,,,,,,
64c3c4822b7f1c2b20dff932,forced_choice,294,39,"Compassion",64,"Kindness and caring",true,"Sleep and fatigue",85,"Sleep and fatigue",false,"Compassion",64,"Kindness and caring",true,"Sleep and fatigue",85,"Sleep and fatigue",false,1864,,,,,,,,,
64c3c4822b7f1c2b20dff932,forced_choice,295,39,"Strategic preparation",42,"Planning",true,"Retaining information",41,"Memory",true,"Strategic preparation",42,"Planning",true,"Retaining information",41,"Memory",true,2315,,,,,,,,,
64c3c4822b7f1c2b20dff932,forced_choice,296,39,"Decision-making",36,"Decision-making",false,"Resilience",28,"Resilience",false,"Decision-making",36,"Decision-making",false,"Resilience",28,"Resilience",false,1083,,,,,,,,,
64c3c4822b7f1c2b20dff932,forced_choice,297,39,"Supportive",63,"Helpfulness",true,"Resilience",28,"Resilience",false,"Resilience",28,"Resilience",false,"Supportive",63,"Helpfulness",true,1467,,,,,,,,,
64c3c4822b7f1c2b20dff932,forced_choice,298,39,"Frustration tolerance",62,"Patience",true,"Drug intake",87,"Substance use",true,"Frustration tolerance",62,"Patience",true,"Drug intake",87,"Substance use",true,2485,,,,,,,,,
64c3c4822b7f1c2b20dff932,forced_choice,299,39,"Moral",65,"Integrity and honesty",true,"Resilience",28,"Resilience",false,"Moral",65,"Integrity and honesty",true,"Resilience",28,"Resilience",false,2079,,,,,,,,,
64c3c4822b7f1c2b20dff932,forced_choice,300,39,"Rate of thought processing",48,"Thinking speed",true,"Compassion",64,"Kindness and caring",true,"Rate of thought processing",48,"Thinking speed",true,"Compassion",64,"Kindness and caring",true,1498,,,,,,,,,
64c3c4822b7f1c2b20dff932,forced_choice,301,39,"Confidence in groups",13,"Comfort in social situations",true,"Feeling accepted",20,"Social belonging",true,"Confidence in groups",13,"Comfort in social situations",true,"Feeling accepted",20,"Social belonging",true,1283,,,,,,,,,
64c3c4822b7f1c2b20dff932,forced_choice,302,39,"Retaining information",41,"Memory",true,"Expectations",72,"Future outlook",true,"Retaining information",41,"Memory",true,"Expectations",72,"Future outlook",true,2931,,,,,,,,,
64c3c4822b7f1c2b20dff932,forced_choice,303,39,"Personal observation",77,"Self-monitoring",true,"Feeling accepted",20,"Social belonging",true,"Personal observation",77,"Self-monitoring",true,"Feeling accepted",20,"Social belonging",true,8756,,,,,,,,,
64c3c4822b7f1c2b20dff932,forced_choice,304,39,"Sleep and fatigue",85,"Sleep and fatigue",false,"Openness",58,"Openness",false,"Openness",58,"Openness",false,"Sleep and fatigue",85,"Sleep and fatigue",false,1337,,,,,,,,,
64c3c4822b7f1c2b20dff932,forced_choice,305,39,"Social conformity",22,"Response to peer pressure",true,"Decision-making",36,"Decision-making",false,"Decision-making",36,"Decision-making",false,"Social conformity",22,"Response to peer pressure",true,1229,,,,,,,,,
64c3c4822b7f1c2b20dff932,forced_choice,306,39,"Decision-making",36,"Decision-making",false,"Strategic preparation",42,"Planning",true,"Decision-making",36,"Decision-making",false,"Strategic preparation",42,"Planning",true,1348,,,,,,,,,
64c3c4822b7f1c2b20dff932,forced_choice,307,39,"Social awareness",16,"Social awareness",false,"Retaining information",41,"Memory",true,"Retaining information",41,"Memory",true,"Social awareness",16,"Social awareness",false,2035,,,,,,,,,
64c3c4822b7f1c2b20dff932,forced_choice,308,39,"Displaying feelings",30,"Emotional expression",true,"Social awareness",16,"Social awareness",false,"Social awareness",16,"Social awareness",false,"Displaying feelings",30,"Emotional expression",true,2528,,,,,,,,,
64c3c4822b7f1c2b20dff932,forced_choice,309,39,"Compassion",64,"Kindness and caring",true,"Resilience",28,"Resilience",false,"Compassion",64,"Kindness and caring",true,"Resilience",28,"Resilience",false,1520,,,,,,,,,
64c3c4822b7f1c2b20dff932,forced_choice,310,39,"Initiative",69,"Initiative",false,"Understanding text",52,"Reading",true,"Initiative",69,"Initiative",false,"Understanding text",52,"Reading",true,1047,,,,,,,,,
64c3c4822b7f1c2b20dff932,forced_choice,311,39,"Compassion",64,"Kindness and caring",true,"Assertiveness",70,"Assertiveness",false,"Assertiveness",70,"Assertiveness",false,"Compassion",64,"Kindness and caring",true,1253,,,,,,,,,
64c3c4822b7f1c2b20dff932,forced_choice,312,39,"Mental regulation",34,"Managing thoughts",true,"Compassion",64,"Kindness and caring",true,"Mental regulation",34,"Managing thoughts",true,"Compassion",64,"Kindness and caring",true,1566,,,,,,,,,
64c3c4822b7f1c2b20dff932,forced_choice,313,39,"Decision-making",36,"Decision-making",false,"Understanding text",52,"Reading",true,"Decision-making",36,"Decision-making",false,"Understanding text",52,"Reading",true,1462,,,,,,,,,
64c3c4822b7f1c2b20dff932,forced_choice,314,39,"Handling disagreements",24,"Managing conflict",true,"Social conformity",22,"Response to peer pressure",true,"Handling disagreements",24,"Managing conflict",true,"Social conformity",22,"Response to peer pressure",true,1414,,,,,,,,,
64c3c4822b7f1c2b20dff932,forced_choice,315,39,"Assertiveness",70,"Assertiveness",false,"Moral",65,"Integrity and honesty",true,"Moral",65,"Integrity and honesty",true,"Assertiveness",70,"Assertiveness",false,1450,,,,,,,,,
64c3c4822b7f1c2b20dff932,forced_choice,316,39,"Retaining information",41,"Memory",true,"Moral",65,"Integrity and honesty",true,"Moral",65,"Integrity and honesty",true,"Retaining information",41,"Memory",true,3892,,,,,,,,,
64c3c4822b7f1c2b20dff932,forced_choice,317,39,"Retaining information",41,"Memory",true,"Openness",58,"Openness",false,"Openness",58,"Openness",false,"Retaining information",41,"Memory",true,1951,,,,,,,,,
64c3c4822b7f1c2b20dff932,forced_choice,318,39,"Supportive",63,"Helpfulness",true,"Time management",44,"Time management",false,"Time management",44,"Time management",false,"Supportive",63,"Helpfulness",true,1198,,,,,,,,,
64c3c4822b7f1c2b20dff932,forced_choice,319,39,"Resilience",28,"Resilience",false,"Social conformity",22,"Response to peer pressure",true,"Resilience",28,"Resilience",false,"Social conformity",22,"Response to peer pressure",true,1738,,,,,,,,,
64c3c4822b7f1c2b20dff932,forced_choice,320,39,"Social awareness",16,"Social awareness",false,"Strategic preparation",42,"Planning",true,"Strategic preparation",42,"Planning",true,"Social awareness",16,"Social awareness",false,5981,,,,,,,,,
64c3c4822b7f1c2b20dff932,forced_choice,321,39,"Time management",44,"Time management",false,"Frustration tolerance",62,"Patience",true,"Time management",44,"Time management",false,"Frustration tolerance",62,"Patience",true,1318,,,,,,,,,
64c3c4822b7f1c2b20dff932,forced_choice,322,39,"Time management",44,"Time management",false,"Resilience",28,"Resilience",false,"Time management",44,"Time management",false,"Resilience",28,"Resilience",false,2143,,,,,,,,,
64c3c4822b7f1c2b20dff932,forced_choice,323,39,"Decision-making",36,"Decision-making",false,"Feeling accepted",20,"Social belonging",true,"Decision-making",36,"Decision-making",false,"Feeling accepted",20,"Social belonging",true,1288,,,,,,,,,
64c3c4822b7f1c2b20dff932,forced_choice,324,39,"Handling disagreements",24,"Managing conflict",true,"Assertiveness",70,"Assertiveness",false,"Handling disagreements",24,"Managing conflict",true,"Assertiveness",70,"Assertiveness",false,1243,,,,,,,,,
